{
  "resourceType": "Bundle",
  "type": "transaction",
  "entry": [
    {
      "fullUrl": "urn:uuid:68375663-b46e-4112-9ca8-c8e789028bc3",
      "request": {
        "url": "Patient",
        "method": "POST"
      },
      "resource": {
        "resourceType": "Patient",
        "name": [
          {
            "given": [
              "Mittens"
            ],
            "family": "Cat",
            "text": "PLHIV MMD 180 03-16 Stopped 10-12"
          }
        ],
        "gender": "female",
        "birthDate": "1958-01-03"
      }
    },
    {
      "fullUrl": "urn:uuid:da01ed78-e4ff-4ae3-a1f9-8a1bc2b483e8",
      "request": {
        "url": "Condition",
        "method": "POST"
      },
      "resource": {
        "resourceType": "Condition",
        "clinicalStatus": {
          "coding": [
            {
              "code": "active",
              "system": "http://terminology.hl7.org/CodeSystem/condition-clinical"
            }
          ]
        },
        "verificationStatus": {
          "coding": [
            {
              "code": "confirmed",
              "system": "http://terminology.hl7.org/CodeSystem/condition-ver-status"
            }
          ]
        },
        "subject": {
          "reference": "urn:uuid:68375663-b46e-4112-9ca8-c8e789028bc3"
        },
        "code": {
          "coding": [
            {
              "code": "737378009",
              "system": "http://snomed.info/sct",
              "display": "World Health Organization 2007 Human immunodeficiency virus infection clinical stage 1 (finding)"
            }
          ]
        },
        "onsetDateTime": "2016-05-08"
      }
    },
    {
      "fullUrl": "urn:uuid:f70bd829-80ac-4c32-b20a-db5eb9450323",
      "request": {
        "url": "Encounter",
        "method": "POST"
      },
      "resource": {
        "resourceType": "Encounter",
        "status": "finished",
        "class": {
          "code": "AMB",
          "system": "http://terminology.hl7.org/CodeSystem/v3-ActCode"
        },
	"serviceType": {
	  "coding": [
	    {
	      "code": "788081006",
	      "system": "http://snomed.info/sct"
	    }
	  ]
	},
        "subject": {
          "reference": "urn:uuid:68375663-b46e-4112-9ca8-c8e789028bc3"
        },
        "serviceProvider": {
          "reference": "Organization/Organization-DAK"
        },
        "location": [
          {
            "location": {
              "reference": "Location/Location-DAK"
            }
          }
        ],
        "period": {
          "start": "2022-03-16",
          "end": "2022-03-16"
        }
      }
    },
    {
      "fullUrl": "urn:uuid:02d77a57-5b2b-44f2-a2a7-39d4cb77c86c",
      "request": {
        "url": "Observation",
        "method": "POST"
      },
      "resource": {
        "resourceType": "Observation",
        "status": "final",
        "encounter": {
          "reference": "urn:uuid:f70bd829-80ac-4c32-b20a-db5eb9450323"
        },
        "subject": {
          "reference": "urn:uuid:68375663-b46e-4112-9ca8-c8e789028bc3"
        },
        "code": {
          "coding": [
            {
              "code": "258703001",
              "system": "http://snomed.info/sct",
              "display": "Day (qualifier value)"
            }
          ]
        },
        "valueInteger": 180,
        "effectiveDateTime": "2022-03-16"
      }
    },
    {
      "fullUrl": "urn:uuid:ce13d8b8-2fea-47cd-b7b4-d1542d041d17",
      "request": {
        "url": "Observation",
        "method": "POST"
      },
      "resource": {
        "resourceType": "Observation",
        "status": "final",
        "subject": {
          "reference": "urn:uuid:68375663-b46e-4112-9ca8-c8e789028bc3"
        },
        "code": {
          "coding": [
            {
              "code": "413947000",
              "system": "http://snomed.info/sct",
              "display": "Date treatment stopped (observable entity)"
            }
          ]
        },
        "valueDateTime": "2022-10-12",
        "effectiveDateTime": "2022-10-12"
      }
    }
  ]
}
