{
  "resourceType" : "Bundle",
  "type" : "transaction",
  "entry" : [{
    "resource" : {
      "resourceType" : "Patient",
      "id" : "445beebb-e886-11ea-87c2-00155d017200",
      "meta" : {
        "lastUpdated" : "2020-08-27T19:56:35.000+03:00"
      },
      "identifier" : [{
        "id" : "4462a315-e886-11ea-87c2-00155d017200",
        "extension" : [{
          "url" : "http://fhir.openmrs.org/ext/patient/identifier#location",
          "valueReference" : {
            "reference" : "Location/f4934663-bf3a-4778-81b8-4c1e79398069",
            "type" : "Location",
            "display" : "Machakos Level 5 Hospital"
          }
        }],
        "use" : "official",
        "type" : {
          "coding" : [{
            "code" : "dfacd928-0370-4315-99d7-6ec1c9f7ae76"
          }],
          "text" : "OpenMRS ID"
        },
        "value" : "MHECKF"
      },
      {
        "id" : "c4c3233b-7dad-440f-8bab-a473d4abfb1a",
        "use" : "usual",
        "type" : {
          "coding" : [{
            "code" : "05ee9cf4-7242-4a17-b4d4-00f707265c8a"
          }],
          "text" : "Unique Patient Number"
        },
        "value" : "1243898765"
      }],
      "active" : true,
      "name" : [{
        "id" : "445bfd9c-e886-11ea-87c2-00155d017200",
        "family" : "MUNINI  NJOROGE",
        "given" : ["MUNINI  NJOROGE",
        "MUNINI  NJOROGE"]
      }],
      "gender" : "female",
      "birthDate" : "2001-11-30",
      "deceasedBoolean" : false,
      "address" : [{
        "id" : "445c0ea0-e886-11ea-87c2-00155d017200",
        "extension" : [{
          "extension" : [{
            "url" : "http://fhir.openmrs.org/ext/address#address1",
            "valueString" : "15034 address1"
          },
          {
            "url" : "http://fhir.openmrs.org/ext/address#address2",
            "valueString" : "15034 address2"
          },
          {
            "url" : "http://fhir.openmrs.org/ext/address#address4",
            "valueString" : "KITHIMANI"
          }],
          "url" : "http://fhir.openmrs.org/ext/address"
        }],
        "use" : "home",
        "district" : "MACHAKOS",
        "state" : "YATTA"
      }]
    }
  },
  {
    "fullUrl" : "urn:uuid:131072d6-df85-49d2-b0b9-b3040f293feb",
    "resource" : {
      "resourceType" : "Condition",
      "id" : "131072d6-df85-49d2-b0b9-b3040f293feb",
      "clinicalStatus" : {
        "coding" : [{
          "system" : "http://terminology.hl7.org/CodeSystem/condition-clinical",
          "code" : "active",
          "display" : "Active"
        }]
      },
      "category" : [{
        "coding" : [{
          "system" : "http://terminology.hl7.org/CodeSystem/condition-category",
          "code" : "encounter-diagnosis",
          "display" : "Encounter Diagnosis"
        }]
      }],
      "code" : {
        "coding" : [{
          "system" : "http://smart.who.int/hiv/CodeSystem/HIVConcepts",
          "code" : "HIV.B.DE116"
        }]
      },
      "subject" : {
        "reference" : "Patient/445beebb-e886-11ea-87c2-00155d017200"
      },
      "onsetDateTime" : "2023-08-01T12:02:11+03:00"
    },
    "request" : {
      "method" : "PUT",
      "url" : "Condition/131072d6-df85-49d2-b0b9-b3040f293feb"
    }
  },
  {
    "fullUrl" : "urn:uuid:82d737b7-b180-4579-84bb-d1d2e04ec027",
    "resource" : {
      "resourceType" : "Provenance",
      "id" : "82d737b7-b180-4579-84bb-d1d2e04ec027",
      "target" : [{
        "reference" : "urn:uuid:131072d6-df85-49d2-b0b9-b3040f293feb"
      }],
      "entity" : [{
        "role" : "source",
        "what" : {
          "reference" : "Observation/fa1ea8e7-7d90-4a5b-a320-9ee61f7a6ad5"
        }
      }]
    },
    "request" : {
      "method" : "PUT",
      "url" : "Provenance/82d737b7-b180-4579-84bb-d1d2e04ec027"
    }
  }]
}