{
  "resourceType": "Bundle",
  "id": "4a401295-8440-4b4e-905f-2d3ef24cc11c",
  "entry": [ {
    "resource": {
      "resourceType": "Patient",
      "id": "b66d3bbf-1d2c-11eb-8abc-0242e805c5c5",
      "meta": {
        "versionId": "1604347144000",
        "lastUpdated": "2020-11-02T19:59:04.000+00:00"
      },
      "identifier": [ {
        "id": "b679d917-1d2c-11eb-8abc-0242e805c5c5",
        "extension": [ {
          "url": "http://fhir.openmrs.org/ext/patient/identifier#location",
          "valueReference": {
            "reference": "Location/a92f9952-1c4c-4659-893b-a6b56a16b1df",
            "type": "Location",
            "display": "Ngarua Health Centre"
          }
        } ],
        "use": "official",
        "type": {
          "coding": [ {
            "code": "dfacd928-0370-4315-99d7-6ec1c9f7ae76"
          } ],
          "text": "OpenMRS ID"
        },
        "value": "MGFVPG"
      }, {
        "id": "b66d57b8-1d2c-11eb-8abc-0242e805c5c5",
        "extension": [ {
          "url": "http://fhir.openmrs.org/ext/patient/identifier#location",
          "valueReference": {
            "reference": "Location/a92f9952-1c4c-4659-893b-a6b56a16b1df",
            "type": "Location",
            "display": "Ngarua Health Centre"
          }
        } ],
        "use": "usual",
        "type": {
          "coding": [ {
            "code": "05ee9cf4-7242-4a17-b4d4-00f707265c8a"
          } ],
          "text": "Unique Patient Number"
        },
        "value": "1412902282"
      } ],
      "active": true,
      "name": [ {
        "id": "b66d4405-1d2c-11eb-8abc-0242e805c5c5",
        "family": "Kipsaina",
        "given": [ "Kipsaina", "Kipsaina" ]
      } ],
      "gender": "female",
      "birthDate": "1978-12-06",
      "deceasedBoolean": false,
      "address": [ {
        "id": "b66d4c85-1d2c-11eb-8abc-0242e805c5c5",
        "extension": [ {
          "url": "http://fhir.openmrs.org/ext/address",
          "extension": [ {
            "url": "http://fhir.openmrs.org/ext/address#address1",
            "valueString": "325 address1"
          }, {
            "url": "http://fhir.openmrs.org/ext/address#address2",
            "valueString": "GATERO CENTRE "
          }, {
            "url": "http://fhir.openmrs.org/ext/address#address4",
            "valueString": "MARMANET"
          } ]
        } ],
        "use": "old",
        "district": "LAIKIPIA",
        "state": "LAIKIPIA WEST"
      } ]
    },
    "request": {
      "method": "PUT",
      "url": "Patient/b66d3bbf-1d2c-11eb-8abc-0242e805c5c5"
    }
  }, {
    "resource": {
      "resourceType": "Observation",
      "id": "77386097-1d2e-11eb-8abc-0242e805c5c5",
      "meta": {
        "versionId": "1604347897000",
        "lastUpdated": "2020-11-02T20:11:37.000+00:00"
      },
      "status": "final",
      "code": {
        "coding": [ {
          "code": "1193AAAAAAAAAAAAAAAAAAAAAAAAAAAAAAAA",
          "display": "CURRENT DRUGS USED"
        }, {
          "system": "https://cielterminology.org",
          "code": "1193"
        } ],
        "text": "CURRENT DRUGS USED"
      },
      "subject": {
        "reference": "Patient/b66d3bbf-1d2c-11eb-8abc-0242e805c5c5",
        "type": "Patient",
        "display": "Kipsaina Kipsaina Kipsaina (OpenMRS ID: MGFVPG)"
      },
      "encounter": {
        "reference": "Encounter/77382125-1d2e-11eb-8abc-0242e805c5c5",
        "type": "Encounter"
      },
      "effectiveDateTime": "2020-04-08T00:00:00+00:00",
      "issued": "2020-11-02T20:11:37.000+00:00",
      "valueCodeableConcept": {
        "coding": [ {
          "code": "9fb85385-b4fb-468c-b7c1-22f75834b4b0",
          "display": "Tenofovir / Lamivudine / Dolutegravir"
        } ],
        "text": "Tenofovir / Lamivudine / Dolutegravir"
      }
    },
    "request": {
      "method": "PUT",
      "url": "Observation/77382125-1d2e-11eb-8abc-0242e805c5c5"
    }
  }, {
    "resource": {
      "resourceType": "Observation",
      "id": "311d7129-1d2e-11eb-8abc-0242e805c5c5",
      "meta": {
        "versionId": "1604347779000",
        "lastUpdated": "2020-11-02T20:09:39.000+00:00"
      },
      "status": "final",
      "code": {
        "coding": [ {
          "code": "5096AAAAAAAAAAAAAAAAAAAAAAAAAAAAAAAA",
          "display": "RETURN VISIT DATE"
        }, {
          "system": "https://cielterminology.org",
          "code": "5096"
        } ],
        "text": "RETURN VISIT DATE"
      },
      "subject": {
        "reference": "Patient/b66d3bbf-1d2c-11eb-8abc-0242e805c5c5",
        "type": "Patient",
        "display": "Kipsaina Kipsaina Kipsaina (OpenMRS ID: MGFVPG)"
      },
      "encounter": {
        "reference": "Encounter/311ca698-1d2e-11eb-8abc-0242e805c5c5",
        "type": "Encounter"
      },
      "effectiveDateTime": "2020-04-08T00:00:00+00:00",
      "issued": "2020-11-02T20:09:39.000+00:00",
      "valueDateTime": "2020-07-22T00:00:00+00:00"
    },
    "request": {
      "method": "PUT",
      "url": "Observation/311ca698-1d2e-11eb-8abc-0242e805c5c5"
    }
  }, {
    "resource": {
      "resourceType": "Observation",
      "id": "3125158e-1d2e-11eb-8abc-0242e805c5c5",
      "meta": {
        "versionId": "1604347779000",
        "lastUpdated": "2020-11-02T20:09:39.000+00:00"
      },
      "status": "final",
      "code": {
        "coding": [ {
          "code": "5096AAAAAAAAAAAAAAAAAAAAAAAAAAAAAAAA",
          "display": "RETURN VISIT DATE"
        }, {
          "system": "https://cielterminology.org",
          "code": "5096"
        } ],
        "text": "RETURN VISIT DATE"
      },
      "subject": {
        "reference": "Patient/b66d3bbf-1d2c-11eb-8abc-0242e805c5c5",
        "type": "Patient",
        "display": "Kipsaina Kipsaina Kipsaina (OpenMRS ID: MGFVPG)"
      },
      "encounter": {
        "reference": "Encounter/312454e8-1d2e-11eb-8abc-0242e805c5c5",
        "type": "Encounter"
      },
      "effectiveDateTime": "2020-07-10T00:00:00+00:00",
      "issued": "2020-11-02T20:09:39.000+00:00",
      "valueDateTime": "2020-08-13T00:00:00+00:00"
    },
    "request": {
      "method": "PUT",
      "url": "Observation/312454e8-1d2e-11eb-8abc-0242e805c5c5"
    }
  }, {
    "resource": {
      "resourceType": "Observation",
      "id": "312cdba6-1d2e-11eb-8abc-0242e805c5c5",
      "meta": {
        "versionId": "1604347779000",
        "lastUpdated": "2020-11-02T20:09:39.000+00:00"
      },
      "status": "final",
      "code": {
        "coding": [ {
          "code": "5096AAAAAAAAAAAAAAAAAAAAAAAAAAAAAAAA",
          "display": "RETURN VISIT DATE"
        }, {
          "system": "https://cielterminology.org",
          "code": "5096"
        } ],
        "text": "RETURN VISIT DATE"
      },
      "subject": {
        "reference": "Patient/b66d3bbf-1d2c-11eb-8abc-0242e805c5c5",
        "type": "Patient",
        "display": "Kipsaina Kipsaina Kipsaina (OpenMRS ID: MGFVPG)"
      },
      "encounter": {
        "reference": "Encounter/312c107e-1d2e-11eb-8abc-0242e805c5c5",
        "type": "Encounter"
      },
      "effectiveDateTime": "2020-08-10T00:00:00+00:00",
      "issued": "2020-11-02T20:09:39.000+00:00",
      "valueDateTime": "2020-09-09T00:00:00+00:00"
    },
    "request": {
      "method": "PUT",
      "url": "Observation/312c107e-1d2e-11eb-8abc-0242e805c5c5"
    }
  }, {
    "resource": {
      "resourceType": "Observation",
      "id": "31346491-1d2e-11eb-8abc-0242e805c5c5",
      "meta": {
        "versionId": "1604347779000",
        "lastUpdated": "2020-11-02T20:09:39.000+00:00"
      },
      "status": "final",
      "code": {
        "coding": [ {
          "code": "5096AAAAAAAAAAAAAAAAAAAAAAAAAAAAAAAA",
          "display": "RETURN VISIT DATE"
        }, {
          "system": "https://cielterminology.org",
          "code": "5096"
        } ],
        "text": "RETURN VISIT DATE"
      },
      "subject": {
        "reference": "Patient/b66d3bbf-1d2c-11eb-8abc-0242e805c5c5",
        "type": "Patient",
        "display": "Kipsaina Kipsaina Kipsaina (OpenMRS ID: MGFVPG)"
      },
      "encounter": {
        "reference": "Encounter/3133b916-1d2e-11eb-8abc-0242e805c5c5",
        "type": "Encounter"
      },
      "effectiveDateTime": "2020-09-09T00:00:00+00:00",
      "issued": "2020-11-02T20:09:39.000+00:00",
      "valueDateTime": "2020-11-12T00:00:00+00:00"
    },
    "request": {
      "method": "PUT",
      "url": "Observation/3133b916-1d2e-11eb-8abc-0242e805c5c5"
    }
  }, {
    "resource": {
      "resourceType": "Observation",
      "id": "313e92c3-1d2e-11eb-8abc-0242e805c5c5",
      "meta": {
        "versionId": "1604347779000",
        "lastUpdated": "2020-11-02T20:09:39.000+00:00"
      },
      "status": "final",
      "code": {
        "coding": [ {
          "code": "5096AAAAAAAAAAAAAAAAAAAAAAAAAAAAAAAA",
          "display": "RETURN VISIT DATE"
        }, {
          "system": "https://cielterminology.org",
          "code": "5096"
        } ],
        "text": "RETURN VISIT DATE"
      },
      "subject": {
        "reference": "Patient/b66d3bbf-1d2c-11eb-8abc-0242e805c5c5",
        "type": "Patient",
        "display": "Kipsaina Kipsaina Kipsaina (OpenMRS ID: MGFVPG)"
      },
      "encounter": {
        "reference": "Encounter/313dfc14-1d2e-11eb-8abc-0242e805c5c5",
        "type": "Encounter"
      },
      "effectiveDateTime": "2020-09-16T00:00:00+00:00",
      "issued": "2020-11-02T20:09:39.000+00:00",
      "valueDateTime": "2020-10-13T00:00:00+00:00"
    },
    "request": {
      "method": "PUT",
      "url": "Observation/313dfc14-1d2e-11eb-8abc-0242e805c5c5"
    }
  }, {
    "resource": {
      "resourceType": "Observation",
      "id": "03f335bb-cf96-4604-8c7c-24df9c2972bb",
      "meta": {
        "versionId": "1606125622000",
        "lastUpdated": "2020-11-23T10:00:22.000+00:00"
      },
      "status": "final",
      "code": {
        "coding": [ {
          "code": "5096AAAAAAAAAAAAAAAAAAAAAAAAAAAAAAAA",
          "display": "RETURN VISIT DATE"
        }, {
          "system": "https://cielterminology.org",
          "code": "5096"
        } ],
        "text": "RETURN VISIT DATE"
      },
      "subject": {
        "reference": "Patient/b66d3bbf-1d2c-11eb-8abc-0242e805c5c5",
        "type": "Patient",
        "display": "Kipsaina Kipsaina Kipsaina (OpenMRS ID: MGFVPG)"
      },
      "encounter": {
        "reference": "Encounter/ed22ffd6-765b-4fea-8ef8-6f6a38a2cdaa",
        "type": "Encounter"
      },
      "effectiveDateTime": "2020-11-23T09:58:18+00:00",
      "issued": "2020-11-23T10:00:22.000+00:00",
      "valueDateTime": "2021-02-18T00:00:00+00:00"
    },
    "request": {
      "method": "PUT",
      "url": "Observation/ed22ffd6-765b-4fea-8ef8-6f6a38a2cdaa"
    }
  }, {
    "resource": {
      "resourceType": "Observation",
      "id": "862e3a6d-41fe-4b51-bee3-2b949498420d",
      "meta": {
        "versionId": "1612868109000",
        "lastUpdated": "2021-02-09T10:55:09.000+00:00"
      },
      "status": "final",
      "code": {
        "coding": [ {
          "code": "5096AAAAAAAAAAAAAAAAAAAAAAAAAAAAAAAA",
          "display": "RETURN VISIT DATE"
        }, {
          "system": "https://cielterminology.org",
          "code": "5096"
        } ],
        "text": "RETURN VISIT DATE"
      },
      "subject": {
        "reference": "Patient/b66d3bbf-1d2c-11eb-8abc-0242e805c5c5",
        "type": "Patient",
        "display": "Kipsaina Kipsaina Kipsaina (OpenMRS ID: MGFVPG)"
      },
      "encounter": {
        "reference": "Encounter/e4225864-94b9-4081-968b-62f35f8183d1",
        "type": "Encounter"
      },
      "effectiveDateTime": "2021-02-09T10:54:02+00:00",
      "issued": "2021-02-09T10:55:09.000+00:00",
      "valueDateTime": "2021-03-16T00:00:00+00:00"
    },
    "request": {
      "method": "PUT",
      "url": "Observation/e4225864-94b9-4081-968b-62f35f8183d1"
    }
  }, {
    "resource": {
      "resourceType": "Observation",
      "id": "2f1221e3-0917-4412-8cb2-b0ea4ebd7340",
      "meta": {
        "versionId": "1616078261000",
        "lastUpdated": "2021-03-18T14:37:41.000+00:00"
      },
      "status": "final",
      "code": {
        "coding": [ {
          "code": "5096AAAAAAAAAAAAAAAAAAAAAAAAAAAAAAAA",
          "display": "RETURN VISIT DATE"
        }, {
          "system": "https://cielterminology.org",
          "code": "5096"
        } ],
        "text": "RETURN VISIT DATE"
      },
      "subject": {
        "reference": "Patient/b66d3bbf-1d2c-11eb-8abc-0242e805c5c5",
        "type": "Patient",
        "display": "Kipsaina Kipsaina Kipsaina (OpenMRS ID: MGFVPG)"
      },
      "encounter": {
        "reference": "Encounter/dfcdd26c-8160-4d22-bc6c-4eb2f703660b",
        "type": "Encounter"
      },
      "effectiveDateTime": "2021-03-16T14:36:00+00:00",
      "issued": "2021-03-18T14:37:41.000+00:00",
      "valueDateTime": "2021-06-15T00:00:00+00:00"
    },
    "request": {
      "method": "PUT",
      "url": "Observation/dfcdd26c-8160-4d22-bc6c-4eb2f703660b"
    }
  }, {
    "resource": {
      "resourceType": "Observation",
      "id": "e1f1c0c0-f3f4-41fc-bb4f-3126cd8c613a",
      "meta": {
        "versionId": "1623938128000",
        "lastUpdated": "2021-06-17T13:55:28.000+00:00"
      },
      "status": "final",
      "code": {
        "coding": [ {
          "code": "5096AAAAAAAAAAAAAAAAAAAAAAAAAAAAAAAA",
          "display": "RETURN VISIT DATE"
        }, {
          "system": "https://cielterminology.org",
          "code": "5096"
        } ],
        "text": "RETURN VISIT DATE"
      },
      "subject": {
        "reference": "Patient/b66d3bbf-1d2c-11eb-8abc-0242e805c5c5",
        "type": "Patient",
        "display": "Kipsaina Kipsaina Kipsaina (OpenMRS ID: MGFVPG)"
      },
      "encounter": {
        "reference": "Encounter/ff848dbc-6596-486f-82ac-5e85c414bdf9",
        "type": "Encounter"
      },
      "effectiveDateTime": "2021-06-17T13:33:15+00:00",
      "issued": "2021-06-17T13:55:28.000+00:00",
      "valueDateTime": "2021-09-16T00:00:00+00:00"
    },
    "request": {
      "method": "PUT",
      "url": "Observation/ff848dbc-6596-486f-82ac-5e85c414bdf9"
    }
  }, {
    "resource": {
      "resourceType": "Observation",
      "id": "3ca0a73d-0de4-4e2d-ade1-decbe09ec2ec",
      "meta": {
        "versionId": "1632149750000",
        "lastUpdated": "2021-09-20T14:55:50.000+00:00"
      },
      "status": "final",
      "code": {
        "coding": [ {
          "code": "5096AAAAAAAAAAAAAAAAAAAAAAAAAAAAAAAA",
          "display": "RETURN VISIT DATE"
        }, {
          "system": "https://cielterminology.org",
          "code": "5096"
        } ],
        "text": "RETURN VISIT DATE"
      },
      "subject": {
        "reference": "Patient/b66d3bbf-1d2c-11eb-8abc-0242e805c5c5",
        "type": "Patient",
        "display": "Kipsaina Kipsaina Kipsaina (OpenMRS ID: MGFVPG)"
      },
      "encounter": {
        "reference": "Encounter/5d019a17-b683-4840-8f0e-dcbc989f0261",
        "type": "Encounter"
      },
      "effectiveDateTime": "2021-09-20T14:54:24+00:00",
      "issued": "2021-09-20T14:55:50.000+00:00",
      "valueDateTime": "2022-01-18T00:00:00+00:00"
    },
    "request": {
      "method": "PUT",
      "url": "Observation/5d019a17-b683-4840-8f0e-dcbc989f0261"
    }
  }, {
    "resource": {
      "resourceType": "Observation",
      "id": "86b6db15-ac57-4e3b-9287-c39f30311060",
      "meta": {
        "versionId": "1642674976000",
        "lastUpdated": "2022-01-20T10:36:16.000+00:00"
      },
      "status": "final",
      "code": {
        "coding": [ {
          "code": "5096AAAAAAAAAAAAAAAAAAAAAAAAAAAAAAAA",
          "display": "RETURN VISIT DATE"
        }, {
          "system": "https://cielterminology.org",
          "code": "5096"
        } ],
        "text": "RETURN VISIT DATE"
      },
      "subject": {
        "reference": "Patient/b66d3bbf-1d2c-11eb-8abc-0242e805c5c5",
        "type": "Patient",
        "display": "Kipsaina Kipsaina Kipsaina (OpenMRS ID: MGFVPG)"
      },
      "encounter": {
        "reference": "Encounter/7bdfba7c-56a4-41a0-b453-88a9458c6564",
        "type": "Encounter"
      },
      "effectiveDateTime": "2022-01-20T10:34:32+00:00",
      "issued": "2022-01-20T10:36:16.000+00:00",
      "valueDateTime": "2022-04-14T00:00:00+00:00"
    },
    "request": {
      "method": "PUT",
      "url": "Observation/7bdfba7c-56a4-41a0-b453-88a9458c6564"
    }
  }, {
    "resource": {
      "resourceType": "Observation",
      "id": "6601fb84-163a-42c0-a6bb-00c531cfa543",
      "meta": {
        "versionId": "1650456554000",
        "lastUpdated": "2022-04-20T12:09:14.000+00:00"
      },
      "status": "final",
      "code": {
        "coding": [ {
          "code": "5096AAAAAAAAAAAAAAAAAAAAAAAAAAAAAAAA",
          "display": "RETURN VISIT DATE"
        }, {
          "system": "https://cielterminology.org",
          "code": "5096"
        } ],
        "text": "RETURN VISIT DATE"
      },
      "subject": {
        "reference": "Patient/b66d3bbf-1d2c-11eb-8abc-0242e805c5c5",
        "type": "Patient",
        "display": "Kipsaina Kipsaina Kipsaina (OpenMRS ID: MGFVPG)"
      },
      "encounter": {
        "reference": "Encounter/d42c4f83-249c-4bca-814e-5b2f18360de8",
        "type": "Encounter"
      },
      "effectiveDateTime": "2022-04-20T12:05:39+00:00",
      "issued": "2022-04-20T12:09:14.000+00:00",
      "valueDateTime": "2022-07-19T00:00:00+00:00"
    },
    "request": {
      "method": "PUT",
      "url": "Observation/d42c4f83-249c-4bca-814e-5b2f18360de8"
    }
  }, {
    "resource": {
      "resourceType": "Observation",
      "id": "df72c5c2-b314-44a9-9386-cf876a19fed7",
      "meta": {
        "versionId": "1660668694000",
        "lastUpdated": "2022-08-16T16:51:34.000+00:00"
      },
      "status": "final",
      "code": {
        "coding": [ {
          "code": "5096AAAAAAAAAAAAAAAAAAAAAAAAAAAAAAAA",
          "display": "RETURN VISIT DATE"
        }, {
          "system": "https://cielterminology.org",
          "code": "5096"
        } ],
        "text": "RETURN VISIT DATE"
      },
      "subject": {
        "reference": "Patient/b66d3bbf-1d2c-11eb-8abc-0242e805c5c5",
        "type": "Patient",
        "display": "Kipsaina Kipsaina Kipsaina (OpenMRS ID: MGFVPG)"
      },
      "encounter": {
        "reference": "Encounter/99c82a15-1a24-4baa-8e56-e57e92bd47c0",
        "type": "Encounter"
      },
      "effectiveDateTime": "2022-08-16T16:49:57+00:00",
      "issued": "2022-08-16T16:51:34.000+00:00",
      "valueDateTime": "2022-12-13T00:00:00+00:00"
    },
    "request": {
      "method": "PUT",
      "url": "Observation/99c82a15-1a24-4baa-8e56-e57e92bd47c0"
    }
  }, {
    "resource": {
      "resourceType": "Observation",
      "id": "994ae4f0-8499-4707-aeef-ab6ecc681bc0",
      "meta": {
        "versionId": "1671022406000",
        "lastUpdated": "2022-12-14T12:53:26.000+00:00"
      },
      "status": "final",
      "code": {
        "coding": [ {
          "code": "5096AAAAAAAAAAAAAAAAAAAAAAAAAAAAAAAA",
          "display": "RETURN VISIT DATE"
        }, {
          "system": "https://cielterminology.org",
          "code": "5096"
        } ],
        "text": "RETURN VISIT DATE"
      },
      "subject": {
        "reference": "Patient/b66d3bbf-1d2c-11eb-8abc-0242e805c5c5",
        "type": "Patient",
        "display": "Kipsaina Kipsaina Kipsaina (OpenMRS ID: MGFVPG)"
      },
      "encounter": {
        "reference": "Encounter/6e9e562c-6fc5-4ec0-b575-5a5a3a48c262",
        "type": "Encounter"
      },
      "effectiveDateTime": "2022-12-14T12:48:48+00:00",
      "issued": "2022-12-14T12:53:26.000+00:00",
      "valueDateTime": "2023-04-25T00:00:00+00:00"
    },
    "request": {
      "method": "PUT",
      "url": "Observation/6e9e562c-6fc5-4ec0-b575-5a5a3a48c262"
    }
  }, {
    "resource": {
      "resourceType": "Observation",
      "id": "74d7979c-182f-49fa-a553-baba6ae8dc29",
      "meta": {
        "versionId": "1682428370000",
        "lastUpdated": "2023-04-25T13:12:50.000+00:00"
      },
      "status": "final",
      "code": {
        "coding": [ {
          "code": "5096AAAAAAAAAAAAAAAAAAAAAAAAAAAAAAAA",
          "display": "RETURN VISIT DATE"
        }, {
          "system": "https://cielterminology.org",
          "code": "5096"
        } ],
        "text": "RETURN VISIT DATE"
      },
      "subject": {
        "reference": "Patient/b66d3bbf-1d2c-11eb-8abc-0242e805c5c5",
        "type": "Patient",
        "display": "Kipsaina Kipsaina Kipsaina (OpenMRS ID: MGFVPG)"
      },
      "encounter": {
        "reference": "Encounter/68fc3e40-4368-414d-b822-4c345ccb396c",
        "type": "Encounter"
      },
      "effectiveDateTime": "2023-04-25T13:06:51+00:00",
      "issued": "2023-04-25T13:12:50.000+00:00",
      "valueDateTime": "2023-08-22T00:00:00+00:00"
    },
    "request": {
      "method": "PUT",
      "url": "Observation/68fc3e40-4368-414d-b822-4c345ccb396c"
    }
  }, {
    "resource": {
      "resourceType": "Observation",
      "id": "01ac28a2-f668-4315-8e3b-539c014103a5",
      "meta": {
        "versionId": "1692701165000",
        "lastUpdated": "2023-08-22T10:46:05.000+00:00"
      },
      "status": "final",
      "code": {
        "coding": [ {
          "code": "5096AAAAAAAAAAAAAAAAAAAAAAAAAAAAAAAA",
          "display": "RETURN VISIT DATE"
        }, {
          "system": "https://cielterminology.org",
          "code": "5096"
        } ],
        "text": "RETURN VISIT DATE"
      },
      "subject": {
        "reference": "Patient/b66d3bbf-1d2c-11eb-8abc-0242e805c5c5",
        "type": "Patient",
        "display": "Kipsaina Kipsaina Kipsaina (OpenMRS ID: MGFVPG)"
      },
      "encounter": {
        "reference": "Encounter/de5c8925-0937-4913-9b9f-c1a03e39b3af",
        "type": "Encounter"
      },
      "effectiveDateTime": "2023-08-22T10:43:03+00:00",
      "issued": "2023-08-22T10:46:05.000+00:00",
      "valueDateTime": "2023-12-12T00:00:00+00:00"
    },
    "request": {
      "method": "PUT",
      "url": "Observation/de5c8925-0937-4913-9b9f-c1a03e39b3af"
    }
  }, {
    "resource": {
      "resourceType": "Patient",
      "id": "b67a0120-1d2c-11eb-8abc-0242e805c5c5",
      "meta": {
        "versionId": "1604347144000",
        "lastUpdated": "2020-11-02T19:59:04.000+00:00"
      },
      "identifier": [ {
        "id": "b68922bb-1d2c-11eb-8abc-0242e805c5c5",
        "extension": [ {
          "url": "http://fhir.openmrs.org/ext/patient/identifier#location",
          "valueReference": {
            "reference": "Location/a92f9952-1c4c-4659-893b-a6b56a16b1df",
            "type": "Location",
            "display": "Ngarua Health Centre"
          }
        } ],
        "use": "official",
        "type": {
          "coding": [ {
            "code": "dfacd928-0370-4315-99d7-6ec1c9f7ae76"
          } ],
          "text": "OpenMRS ID"
        },
        "value": "MGFVRE"
      }, {
        "id": "b67a6859-1d2c-11eb-8abc-0242e805c5c5",
        "extension": [ {
          "url": "http://fhir.openmrs.org/ext/patient/identifier#location",
          "valueReference": {
            "reference": "Location/a92f9952-1c4c-4659-893b-a6b56a16b1df",
            "type": "Location",
            "display": "Ngarua Health Centre"
          }
        } ],
        "use": "usual",
        "type": {
          "coding": [ {
            "code": "05ee9cf4-7242-4a17-b4d4-00f707265c8a"
          } ],
          "text": "Unique Patient Number"
        },
        "value": "01211100028"
      } ],
      "active": true,
      "name": [ {
        "id": "b67a1eef-1d2c-11eb-8abc-0242e805c5c5",
        "family": "SUSAN",
        "given": [ "SUSAN", "SUSAN" ]
      } ],
      "gender": "male",
      "birthDate": "1960-06-15",
      "deceasedBoolean": false,
      "address": [ {
        "id": "b67a3d62-1d2c-11eb-8abc-0242e805c5c5",
        "extension": [ {
          "url": "http://fhir.openmrs.org/ext/address",
          "extension": [ {
            "url": "http://fhir.openmrs.org/ext/address#address1",
            "valueString": "326 address1"
          } ]
        } ],
        "use": "old"
      } ]
    },
    "request": {
      "method": "PUT",
      "url": "Patient/b67a0120-1d2c-11eb-8abc-0242e805c5c5"
    }
  }, {
    "resource": {
      "resourceType": "Observation",
      "id": "77429e1b-1d2e-11eb-8abc-0242e805c5c5",
      "meta": {
        "versionId": "1604347897000",
        "lastUpdated": "2020-11-02T20:11:37.000+00:00"
      },
      "status": "final",
      "code": {
        "coding": [ {
          "code": "1193AAAAAAAAAAAAAAAAAAAAAAAAAAAAAAAA",
          "display": "CURRENT DRUGS USED"
        }, {
          "system": "https://cielterminology.org",
          "code": "1193"
        } ],
        "text": "CURRENT DRUGS USED"
      },
      "subject": {
        "reference": "Patient/b67a0120-1d2c-11eb-8abc-0242e805c5c5",
        "type": "Patient",
        "display": "SUSAN SUSAN SUSAN (OpenMRS ID: MGFVRE)"
      },
      "encounter": {
        "reference": "Encounter/77425d11-1d2e-11eb-8abc-0242e805c5c5",
        "type": "Encounter"
      },
      "effectiveDateTime": "2017-10-27T00:00:00+00:00",
      "issued": "2020-11-02T20:11:37.000+00:00",
      "valueCodeableConcept": {
        "coding": [ {
          "code": "1652AAAAAAAAAAAAAAAAAAAAAAAAAAAAAAAA",
          "display": "LAMIVUDINE / NEVIRAPINE / ZIDOVUDINE"
        }, {
          "system": "https://cielterminology.org",
          "code": "1652"
        }, {
          "system": "http://snomed.info/sct/",
          "code": "424990009"
        } ],
        "text": "LAMIVUDINE / NEVIRAPINE / ZIDOVUDINE"
      }
    },
    "request": {
      "method": "PUT",
      "url": "Observation/77425d11-1d2e-11eb-8abc-0242e805c5c5"
    }
  }, {
    "resource": {
      "resourceType": "Observation",
      "id": "31460266-1d2e-11eb-8abc-0242e805c5c5",
      "meta": {
        "versionId": "1604347779000",
        "lastUpdated": "2020-11-02T20:09:39.000+00:00"
      },
      "status": "final",
      "code": {
        "coding": [ {
          "code": "5096AAAAAAAAAAAAAAAAAAAAAAAAAAAAAAAA",
          "display": "RETURN VISIT DATE"
        }, {
          "system": "https://cielterminology.org",
          "code": "5096"
        } ],
        "text": "RETURN VISIT DATE"
      },
      "subject": {
        "reference": "Patient/b67a0120-1d2c-11eb-8abc-0242e805c5c5",
        "type": "Patient",
        "display": "SUSAN SUSAN SUSAN (OpenMRS ID: MGFVRE)"
      },
      "encounter": {
        "reference": "Encounter/31457dec-1d2e-11eb-8abc-0242e805c5c5",
        "type": "Encounter"
      },
      "effectiveDateTime": "2017-10-27T00:00:00+00:00",
      "issued": "2020-11-02T20:09:39.000+00:00",
      "valueDateTime": "2018-01-25T00:00:00+00:00"
    },
    "request": {
      "method": "PUT",
      "url": "Observation/31457dec-1d2e-11eb-8abc-0242e805c5c5"
    }
  }, {
    "resource": {
      "resourceType": "Observation",
      "id": "31504670-1d2e-11eb-8abc-0242e805c5c5",
      "meta": {
        "versionId": "1604347779000",
        "lastUpdated": "2020-11-02T20:09:39.000+00:00"
      },
      "status": "final",
      "code": {
        "coding": [ {
          "code": "5096AAAAAAAAAAAAAAAAAAAAAAAAAAAAAAAA",
          "display": "RETURN VISIT DATE"
        }, {
          "system": "https://cielterminology.org",
          "code": "5096"
        } ],
        "text": "RETURN VISIT DATE"
      },
      "subject": {
        "reference": "Patient/b67a0120-1d2c-11eb-8abc-0242e805c5c5",
        "type": "Patient",
        "display": "SUSAN SUSAN SUSAN (OpenMRS ID: MGFVRE)"
      },
      "encounter": {
        "reference": "Encounter/314fc419-1d2e-11eb-8abc-0242e805c5c5",
        "type": "Encounter"
      },
      "effectiveDateTime": "2018-01-26T00:00:00+00:00",
      "issued": "2020-11-02T20:09:39.000+00:00",
      "valueDateTime": "2018-03-28T00:00:00+00:00"
    },
    "request": {
      "method": "PUT",
      "url": "Observation/314fc419-1d2e-11eb-8abc-0242e805c5c5"
    }
  }, {
    "resource": {
      "resourceType": "Observation",
      "id": "3157d12a-1d2e-11eb-8abc-0242e805c5c5",
      "meta": {
        "versionId": "1604347779000",
        "lastUpdated": "2020-11-02T20:09:39.000+00:00"
      },
      "status": "final",
      "code": {
        "coding": [ {
          "code": "5096AAAAAAAAAAAAAAAAAAAAAAAAAAAAAAAA",
          "display": "RETURN VISIT DATE"
        }, {
          "system": "https://cielterminology.org",
          "code": "5096"
        } ],
        "text": "RETURN VISIT DATE"
      },
      "subject": {
        "reference": "Patient/b67a0120-1d2c-11eb-8abc-0242e805c5c5",
        "type": "Patient",
        "display": "SUSAN SUSAN SUSAN (OpenMRS ID: MGFVRE)"
      },
      "encounter": {
        "reference": "Encounter/31575854-1d2e-11eb-8abc-0242e805c5c5",
        "type": "Encounter"
      },
      "effectiveDateTime": "2018-05-22T00:00:00+00:00",
      "issued": "2020-11-02T20:09:39.000+00:00",
      "valueDateTime": "2018-07-18T00:00:00+00:00"
    },
    "request": {
      "method": "PUT",
      "url": "Observation/31575854-1d2e-11eb-8abc-0242e805c5c5"
    }
  }, {
    "resource": {
      "resourceType": "Observation",
      "id": "3161c8e2-1d2e-11eb-8abc-0242e805c5c5",
      "meta": {
        "versionId": "1604347779000",
        "lastUpdated": "2020-11-02T20:09:39.000+00:00"
      },
      "status": "final",
      "code": {
        "coding": [ {
          "code": "5096AAAAAAAAAAAAAAAAAAAAAAAAAAAAAAAA",
          "display": "RETURN VISIT DATE"
        }, {
          "system": "https://cielterminology.org",
          "code": "5096"
        } ],
        "text": "RETURN VISIT DATE"
      },
      "subject": {
        "reference": "Patient/b67a0120-1d2c-11eb-8abc-0242e805c5c5",
        "type": "Patient",
        "display": "SUSAN SUSAN SUSAN (OpenMRS ID: MGFVRE)"
      },
      "encounter": {
        "reference": "Encounter/31618f11-1d2e-11eb-8abc-0242e805c5c5",
        "type": "Encounter"
      },
      "effectiveDateTime": "2018-07-18T00:00:00+00:00",
      "issued": "2020-11-02T20:09:39.000+00:00",
      "valueDateTime": "2018-10-16T00:00:00+00:00"
    },
    "request": {
      "method": "PUT",
      "url": "Observation/31618f11-1d2e-11eb-8abc-0242e805c5c5"
    }
  }, {
    "resource": {
      "resourceType": "Observation",
      "id": "3169b3fc-1d2e-11eb-8abc-0242e805c5c5",
      "meta": {
        "versionId": "1604347779000",
        "lastUpdated": "2020-11-02T20:09:39.000+00:00"
      },
      "status": "final",
      "code": {
        "coding": [ {
          "code": "5096AAAAAAAAAAAAAAAAAAAAAAAAAAAAAAAA",
          "display": "RETURN VISIT DATE"
        }, {
          "system": "https://cielterminology.org",
          "code": "5096"
        } ],
        "text": "RETURN VISIT DATE"
      },
      "subject": {
        "reference": "Patient/b67a0120-1d2c-11eb-8abc-0242e805c5c5",
        "type": "Patient",
        "display": "SUSAN SUSAN SUSAN (OpenMRS ID: MGFVRE)"
      },
      "encounter": {
        "reference": "Encounter/31694029-1d2e-11eb-8abc-0242e805c5c5",
        "type": "Encounter"
      },
      "effectiveDateTime": "2018-07-19T00:00:00+00:00",
      "issued": "2020-11-02T20:09:39.000+00:00",
      "valueDateTime": "2018-10-11T00:00:00+00:00"
    },
    "request": {
      "method": "PUT",
      "url": "Observation/31694029-1d2e-11eb-8abc-0242e805c5c5"
    }
  }, {
    "resource": {
      "resourceType": "Observation",
      "id": "31715800-1d2e-11eb-8abc-0242e805c5c5",
      "meta": {
        "versionId": "1604347780000",
        "lastUpdated": "2020-11-02T20:09:40.000+00:00"
      },
      "status": "final",
      "code": {
        "coding": [ {
          "code": "5096AAAAAAAAAAAAAAAAAAAAAAAAAAAAAAAA",
          "display": "RETURN VISIT DATE"
        }, {
          "system": "https://cielterminology.org",
          "code": "5096"
        } ],
        "text": "RETURN VISIT DATE"
      },
      "subject": {
        "reference": "Patient/b67a0120-1d2c-11eb-8abc-0242e805c5c5",
        "type": "Patient",
        "display": "SUSAN SUSAN SUSAN (OpenMRS ID: MGFVRE)"
      },
      "encounter": {
        "reference": "Encounter/3170d98b-1d2e-11eb-8abc-0242e805c5c5",
        "type": "Encounter"
      },
      "effectiveDateTime": "2018-10-11T00:00:00+00:00",
      "issued": "2020-11-02T20:09:40.000+00:00",
      "valueDateTime": "2019-01-10T00:00:00+00:00"
    },
    "request": {
      "method": "PUT",
      "url": "Observation/3170d98b-1d2e-11eb-8abc-0242e805c5c5"
    }
  }, {
    "resource": {
      "resourceType": "Observation",
      "id": "317b90f4-1d2e-11eb-8abc-0242e805c5c5",
      "meta": {
        "versionId": "1604347780000",
        "lastUpdated": "2020-11-02T20:09:40.000+00:00"
      },
      "status": "final",
      "code": {
        "coding": [ {
          "code": "5096AAAAAAAAAAAAAAAAAAAAAAAAAAAAAAAA",
          "display": "RETURN VISIT DATE"
        }, {
          "system": "https://cielterminology.org",
          "code": "5096"
        } ],
        "text": "RETURN VISIT DATE"
      },
      "subject": {
        "reference": "Patient/b67a0120-1d2c-11eb-8abc-0242e805c5c5",
        "type": "Patient",
        "display": "SUSAN SUSAN SUSAN (OpenMRS ID: MGFVRE)"
      },
      "encounter": {
        "reference": "Encounter/317b1509-1d2e-11eb-8abc-0242e805c5c5",
        "type": "Encounter"
      },
      "effectiveDateTime": "2019-03-13T00:00:00+00:00",
      "issued": "2020-11-02T20:09:40.000+00:00",
      "valueDateTime": "2019-09-09T00:00:00+00:00"
    },
    "request": {
      "method": "PUT",
      "url": "Observation/317b1509-1d2e-11eb-8abc-0242e805c5c5"
    }
  }, {
    "resource": {
      "resourceType": "Observation",
      "id": "31837357-1d2e-11eb-8abc-0242e805c5c5",
      "meta": {
        "versionId": "1604347780000",
        "lastUpdated": "2020-11-02T20:09:40.000+00:00"
      },
      "status": "final",
      "code": {
        "coding": [ {
          "code": "5096AAAAAAAAAAAAAAAAAAAAAAAAAAAAAAAA",
          "display": "RETURN VISIT DATE"
        }, {
          "system": "https://cielterminology.org",
          "code": "5096"
        } ],
        "text": "RETURN VISIT DATE"
      },
      "subject": {
        "reference": "Patient/b67a0120-1d2c-11eb-8abc-0242e805c5c5",
        "type": "Patient",
        "display": "SUSAN SUSAN SUSAN (OpenMRS ID: MGFVRE)"
      },
      "encounter": {
        "reference": "Encounter/318297b5-1d2e-11eb-8abc-0242e805c5c5",
        "type": "Encounter"
      },
      "effectiveDateTime": "2020-01-09T00:00:00+00:00",
      "issued": "2020-11-02T20:09:40.000+00:00",
      "valueDateTime": "2020-07-07T00:00:00+00:00"
    },
    "request": {
      "method": "PUT",
      "url": "Observation/318297b5-1d2e-11eb-8abc-0242e805c5c5"
    }
  }, {
    "resource": {
      "resourceType": "Observation",
      "id": "318e399f-1d2e-11eb-8abc-0242e805c5c5",
      "meta": {
        "versionId": "1604347780000",
        "lastUpdated": "2020-11-02T20:09:40.000+00:00"
      },
      "status": "final",
      "code": {
        "coding": [ {
          "code": "5096AAAAAAAAAAAAAAAAAAAAAAAAAAAAAAAA",
          "display": "RETURN VISIT DATE"
        }, {
          "system": "https://cielterminology.org",
          "code": "5096"
        } ],
        "text": "RETURN VISIT DATE"
      },
      "subject": {
        "reference": "Patient/b67a0120-1d2c-11eb-8abc-0242e805c5c5",
        "type": "Patient",
        "display": "SUSAN SUSAN SUSAN (OpenMRS ID: MGFVRE)"
      },
      "encounter": {
        "reference": "Encounter/318e18d3-1d2e-11eb-8abc-0242e805c5c5",
        "type": "Encounter"
      },
      "effectiveDateTime": "2020-07-09T00:00:00+00:00",
      "issued": "2020-11-02T20:09:40.000+00:00",
      "valueDateTime": "2020-08-08T00:00:00+00:00"
    },
    "request": {
      "method": "PUT",
      "url": "Observation/318e18d3-1d2e-11eb-8abc-0242e805c5c5"
    }
  }, {
    "resource": {
      "resourceType": "Observation",
      "id": "319555b0-1d2e-11eb-8abc-0242e805c5c5",
      "meta": {
        "versionId": "1604347780000",
        "lastUpdated": "2020-11-02T20:09:40.000+00:00"
      },
      "status": "final",
      "code": {
        "coding": [ {
          "code": "5096AAAAAAAAAAAAAAAAAAAAAAAAAAAAAAAA",
          "display": "RETURN VISIT DATE"
        }, {
          "system": "https://cielterminology.org",
          "code": "5096"
        } ],
        "text": "RETURN VISIT DATE"
      },
      "subject": {
        "reference": "Patient/b67a0120-1d2c-11eb-8abc-0242e805c5c5",
        "type": "Patient",
        "display": "SUSAN SUSAN SUSAN (OpenMRS ID: MGFVRE)"
      },
      "encounter": {
        "reference": "Encounter/31949439-1d2e-11eb-8abc-0242e805c5c5",
        "type": "Encounter"
      },
      "effectiveDateTime": "2020-07-16T00:00:00+00:00",
      "issued": "2020-11-02T20:09:40.000+00:00",
      "valueDateTime": "2020-11-25T00:00:00+00:00"
    },
    "request": {
      "method": "PUT",
      "url": "Observation/31949439-1d2e-11eb-8abc-0242e805c5c5"
    }
  }, {
    "resource": {
      "resourceType": "Observation",
      "id": "4f23c3c6-cc25-45ec-8f22-11cb5dca8f2f",
      "meta": {
        "versionId": "1606301335000",
        "lastUpdated": "2020-11-25T10:48:55.000+00:00"
      },
      "status": "final",
      "code": {
        "coding": [ {
          "code": "5096AAAAAAAAAAAAAAAAAAAAAAAAAAAAAAAA",
          "display": "RETURN VISIT DATE"
        }, {
          "system": "https://cielterminology.org",
          "code": "5096"
        } ],
        "text": "RETURN VISIT DATE"
      },
      "subject": {
        "reference": "Patient/b67a0120-1d2c-11eb-8abc-0242e805c5c5",
        "type": "Patient",
        "display": "SUSAN SUSAN SUSAN (OpenMRS ID: MGFVRE)"
      },
      "encounter": {
        "reference": "Encounter/debce34d-f82c-4b41-a683-03518d5b3b08",
        "type": "Encounter"
      },
      "effectiveDateTime": "2020-11-25T10:47:21+00:00",
      "issued": "2020-11-25T10:48:55.000+00:00",
      "valueDateTime": "2021-02-25T00:00:00+00:00"
    },
    "request": {
      "method": "PUT",
      "url": "Observation/debce34d-f82c-4b41-a683-03518d5b3b08"
    }
  }, {
    "resource": {
      "resourceType": "Observation",
      "id": "5d6481fb-8d72-46ca-87bc-25eba1fc3907",
      "meta": {
        "versionId": "1614681849000",
        "lastUpdated": "2021-03-02T10:44:09.000+00:00"
      },
      "status": "final",
      "code": {
        "coding": [ {
          "code": "5096AAAAAAAAAAAAAAAAAAAAAAAAAAAAAAAA",
          "display": "RETURN VISIT DATE"
        }, {
          "system": "https://cielterminology.org",
          "code": "5096"
        } ],
        "text": "RETURN VISIT DATE"
      },
      "subject": {
        "reference": "Patient/b67a0120-1d2c-11eb-8abc-0242e805c5c5",
        "type": "Patient",
        "display": "SUSAN SUSAN SUSAN (OpenMRS ID: MGFVRE)"
      },
      "encounter": {
        "reference": "Encounter/fbcc1614-e27c-461c-8f6a-1e99b3a5b078",
        "type": "Encounter"
      },
      "effectiveDateTime": "2021-03-02T10:43:36+00:00",
      "issued": "2021-03-02T10:44:09.000+00:00",
      "valueDateTime": "2021-03-08T00:00:00+00:00"
    },
    "request": {
      "method": "PUT",
      "url": "Observation/fbcc1614-e27c-461c-8f6a-1e99b3a5b078"
    }
  }, {
    "resource": {
      "resourceType": "Observation",
      "id": "4dbfba7a-12cf-4db6-a441-570fd80a933a",
      "meta": {
        "versionId": "1614764339000",
        "lastUpdated": "2021-03-03T09:38:59.000+00:00"
      },
      "status": "final",
      "code": {
        "coding": [ {
          "code": "5096AAAAAAAAAAAAAAAAAAAAAAAAAAAAAAAA",
          "display": "RETURN VISIT DATE"
        }, {
          "system": "https://cielterminology.org",
          "code": "5096"
        } ],
        "text": "RETURN VISIT DATE"
      },
      "subject": {
        "reference": "Patient/b67a0120-1d2c-11eb-8abc-0242e805c5c5",
        "type": "Patient",
        "display": "SUSAN SUSAN SUSAN (OpenMRS ID: MGFVRE)"
      },
      "encounter": {
        "reference": "Encounter/983127d6-5689-454b-9fda-d965f4c0e2be",
        "type": "Encounter"
      },
      "effectiveDateTime": "2021-03-03T09:34:04+00:00",
      "issued": "2021-03-03T09:38:59.000+00:00",
      "valueDateTime": "2021-07-20T00:00:00+00:00"
    },
    "request": {
      "method": "PUT",
      "url": "Observation/983127d6-5689-454b-9fda-d965f4c0e2be"
    }
  }, {
    "resource": {
      "resourceType": "Observation",
      "id": "5801ec46-886f-4068-9bc4-7799c1be6acf",
      "meta": {
        "versionId": "1614945022000",
        "lastUpdated": "2021-03-05T11:50:22.000+00:00"
      },
      "status": "final",
      "code": {
        "coding": [ {
          "code": "5096AAAAAAAAAAAAAAAAAAAAAAAAAAAAAAAA",
          "display": "RETURN VISIT DATE"
        }, {
          "system": "https://cielterminology.org",
          "code": "5096"
        } ],
        "text": "RETURN VISIT DATE"
      },
      "subject": {
        "reference": "Patient/b67a0120-1d2c-11eb-8abc-0242e805c5c5",
        "type": "Patient",
        "display": "SUSAN SUSAN SUSAN (OpenMRS ID: MGFVRE)"
      },
      "encounter": {
        "reference": "Encounter/01f76ad4-5f51-4ca1-b012-f76f39c98fab",
        "type": "Encounter"
      },
      "effectiveDateTime": "2021-03-04T11:49:00+00:00",
      "issued": "2021-03-05T11:50:22.000+00:00",
      "valueDateTime": "2021-07-20T00:00:00+00:00"
    },
    "request": {
      "method": "PUT",
      "url": "Observation/01f76ad4-5f51-4ca1-b012-f76f39c98fab"
    }
  }, {
    "resource": {
      "resourceType": "Observation",
      "id": "ffd9d348-975b-40f3-a393-9ad6e2264c21",
      "meta": {
        "versionId": "1626781991000",
        "lastUpdated": "2021-07-20T11:53:11.000+00:00"
      },
      "status": "final",
      "code": {
        "coding": [ {
          "code": "5096AAAAAAAAAAAAAAAAAAAAAAAAAAAAAAAA",
          "display": "RETURN VISIT DATE"
        }, {
          "system": "https://cielterminology.org",
          "code": "5096"
        } ],
        "text": "RETURN VISIT DATE"
      },
      "subject": {
        "reference": "Patient/b67a0120-1d2c-11eb-8abc-0242e805c5c5",
        "type": "Patient",
        "display": "SUSAN SUSAN SUSAN (OpenMRS ID: MGFVRE)"
      },
      "encounter": {
        "reference": "Encounter/1fb00a06-37be-418f-bf99-c094baa999dd",
        "type": "Encounter"
      },
      "effectiveDateTime": "2021-07-20T11:51:45+00:00",
      "issued": "2021-07-20T11:53:11.000+00:00",
      "valueDateTime": "2021-11-16T00:00:00+00:00"
    },
    "request": {
      "method": "PUT",
      "url": "Observation/1fb00a06-37be-418f-bf99-c094baa999dd"
    }
  }, {
    "resource": {
      "resourceType": "Observation",
      "id": "05074373-8161-440b-a017-e41b8313f8b5",
      "meta": {
        "versionId": "1640163063000",
        "lastUpdated": "2021-12-22T08:51:03.000+00:00"
      },
      "status": "final",
      "code": {
        "coding": [ {
          "code": "161555AAAAAAAAAAAAAAAAAAAAAAAAAAAAAA",
          "display": "Reason for discontinuation of program"
        }, {
          "system": "https://cielterminology.org",
          "code": "161555"
        } ],
        "text": "Reason for discontinuation of program"
      },
      "subject": {
        "reference": "Patient/b67a0120-1d2c-11eb-8abc-0242e805c5c5",
        "type": "Patient",
        "display": "SUSAN SUSAN SUSAN (OpenMRS ID: MGFVRE)"
      },
      "encounter": {
        "reference": "Encounter/1045e0f5-427a-463f-a22a-27147cc76cd9",
        "type": "Encounter"
      },
      "effectiveDateTime": "2021-12-22T08:50:14+00:00",
      "issued": "2021-12-22T08:51:03.000+00:00",
      "valueCodeableConcept": {
        "coding": [ {
          "code": "160034AAAAAAAAAAAAAAAAAAAAAAAAAAAAAA",
          "display": "Died"
        }, {
          "system": "https://cielterminology.org",
          "code": "160034"
        }, {
          "system": "http://snomed.info/sct/",
          "code": "397709008"
        } ],
        "text": "Died"
      }
    },
    "request": {
      "method": "PUT",
      "url": "Observation/1045e0f5-427a-463f-a22a-27147cc76cd9"
    }
  }, {
    "resource": {
      "resourceType": "Observation",
      "id": "203f086e-865c-4f22-ad3d-cf395e228932",
      "meta": {
        "versionId": "1640163063000",
        "lastUpdated": "2021-12-22T08:51:03.000+00:00"
      },
      "status": "final",
      "code": {
        "coding": [ {
          "code": "164384AAAAAAAAAAAAAAAAAAAAAAAAAAAAAA",
          "display": "Treatment end date"
        }, {
          "system": "https://cielterminology.org",
          "code": "164384"
        }, {
          "system": "http://snomed.info/sct/",
          "code": "413947000"
        } ],
        "text": "Treatment end date"
      },
      "subject": {
        "reference": "Patient/b67a0120-1d2c-11eb-8abc-0242e805c5c5",
        "type": "Patient",
        "display": "SUSAN SUSAN SUSAN (OpenMRS ID: MGFVRE)"
      },
      "encounter": {
        "reference": "Encounter/1045e0f5-427a-463f-a22a-27147cc76cd9",
        "type": "Encounter"
      },
      "effectiveDateTime": "2021-12-22T08:50:14+00:00",
      "issued": "2021-12-22T08:51:03.000+00:00",
      "valueDateTime": "2021-10-19T00:00:00+00:00"
    },
    "request": {
      "method": "PUT",
      "url": "Observation/1045e0f5-427a-463f-a22a-27147cc76cd9"
    }
  }, {
    "resource": {
      "resourceType": "Patient",
      "id": "b6894789-1d2c-11eb-8abc-0242e805c5c5",
      "meta": {
        "versionId": "1604347144000",
        "lastUpdated": "2020-11-02T19:59:04.000+00:00"
      },
      "identifier": [ {
        "id": "b6973f46-1d2c-11eb-8abc-0242e805c5c5",
        "extension": [ {
          "url": "http://fhir.openmrs.org/ext/patient/identifier#location",
          "valueReference": {
            "reference": "Location/a92f9952-1c4c-4659-893b-a6b56a16b1df",
            "type": "Location",
            "display": "Ngarua Health Centre"
          }
        } ],
        "use": "official",
        "type": {
          "coding": [ {
            "code": "dfacd928-0370-4315-99d7-6ec1c9f7ae76"
          } ],
          "text": "OpenMRS ID"
        },
        "value": "MGFVTC"
      }, {
        "id": "b689adcf-1d2c-11eb-8abc-0242e805c5c5",
        "extension": [ {
          "url": "http://fhir.openmrs.org/ext/patient/identifier#location",
          "valueReference": {
            "reference": "Location/a92f9952-1c4c-4659-893b-a6b56a16b1df",
            "type": "Location",
            "display": "Ngarua Health Centre"
          }
        } ],
        "use": "usual",
        "type": {
          "coding": [ {
            "code": "05ee9cf4-7242-4a17-b4d4-00f707265c8a"
          } ],
          "text": "Unique Patient Number"
        },
        "value": "1565400774"
      }, {
        "id": "58cf7436-9e65-4a49-9300-e525397a69e1",
        "extension": [ {
          "url": "http://fhir.openmrs.org/ext/patient/identifier#location",
          "valueReference": {
            "reference": "Location/a92f9952-1c4c-4659-893b-a6b56a16b1df",
            "type": "Location",
            "display": "Ngarua Health Centre"
          }
        } ],
        "use": "usual",
        "type": {
          "coding": [ {
            "code": "f85081e2-b4be-4e48-b3a4-7994b69bb101"
          } ],
          "text": "National Unique patient identifier"
        },
        "value": "0000V9X9Q9797"
      }, {
        "id": "ceabfff2-14a3-4a6b-9fa5-a0f546ff8e00",
        "extension": [ {
          "url": "http://fhir.openmrs.org/ext/patient/identifier#location",
          "valueReference": {
            "reference": "Location/a92f9952-1c4c-4659-893b-a6b56a16b1df",
            "type": "Location",
            "display": "Ngarua Health Centre"
          }
        } ],
        "use": "usual",
        "type": {
          "coding": [ {
            "code": "49af6cdc-7968-4abb-bf46-de10d7f4859f"
          } ],
          "text": "National ID"
        },
        "value": "9676678"
      } ],
      "active": true,
      "name": [ {
        "id": "b689656a-1d2c-11eb-8abc-0242e805c5c5",
        "family": "Mainstore",
        "given": [ "Mainstore", "Mainstore" ]
      } ],
      "gender": "female",
      "birthDate": "1969-06-15",
      "deceasedBoolean": false,
      "address": [ {
        "id": "b68983dd-1d2c-11eb-8abc-0242e805c5c5",
        "extension": [ {
          "url": "http://fhir.openmrs.org/ext/address",
          "extension": [ {
            "url": "http://fhir.openmrs.org/ext/address#address1",
            "valueString": "327 address1"
          }, {
            "url": "http://fhir.openmrs.org/ext/address#address2",
            "valueString": "seventeen"
          }, {
            "url": "http://fhir.openmrs.org/ext/address#address4",
            "valueString": "Marmanet"
          }, {
            "url": "http://fhir.openmrs.org/ext/address#address5",
            "valueString": "Tuiyobei"
          }, {
            "url": "http://fhir.openmrs.org/ext/address#address6",
            "valueString": "Kimoriot"
          } ]
        } ],
        "use": "home",
        "city": "Seventeen",
        "district": "Laikipia",
        "state": "Laikipia West"
      } ]
    },
    "request": {
      "method": "PUT",
      "url": "Patient/b6894789-1d2c-11eb-8abc-0242e805c5c5"
    }
  }, {
    "resource": {
      "resourceType": "Observation",
      "id": "774f71ed-1d2e-11eb-8abc-0242e805c5c5",
      "meta": {
        "versionId": "1604347897000",
        "lastUpdated": "2020-11-02T20:11:37.000+00:00"
      },
      "status": "final",
      "code": {
        "coding": [ {
          "code": "1193AAAAAAAAAAAAAAAAAAAAAAAAAAAAAAAA",
          "display": "CURRENT DRUGS USED"
        }, {
          "system": "https://cielterminology.org",
          "code": "1193"
        } ],
        "text": "CURRENT DRUGS USED"
      },
      "subject": {
        "reference": "Patient/b6894789-1d2c-11eb-8abc-0242e805c5c5",
        "type": "Patient",
        "display": "Mainstore Mainstore Mainstore (OpenMRS ID: MGFVTC)"
      },
      "encounter": {
        "reference": "Encounter/774f3640-1d2e-11eb-8abc-0242e805c5c5",
        "type": "Encounter"
      },
      "effectiveDateTime": "2017-09-06T00:00:00+00:00",
      "issued": "2020-11-02T20:11:37.000+00:00",
      "valueCodeableConcept": {
        "coding": [ {
          "code": "164505AAAAAAAAAAAAAAAAAAAAAAAAAAAAAA",
          "display": "Lamivudine / Efavirenz / Tenofovir"
        }, {
          "system": "https://cielterminology.org",
          "code": "164505"
        } ],
        "text": "Lamivudine / Efavirenz / Tenofovir"
      }
    },
    "request": {
      "method": "PUT",
      "url": "Observation/774f3640-1d2e-11eb-8abc-0242e805c5c5"
    }
  }, {
    "resource": {
      "resourceType": "Observation",
      "id": "319f3291-1d2e-11eb-8abc-0242e805c5c5",
      "meta": {
        "versionId": "1604347780000",
        "lastUpdated": "2020-11-02T20:09:40.000+00:00"
      },
      "status": "final",
      "code": {
        "coding": [ {
          "code": "5096AAAAAAAAAAAAAAAAAAAAAAAAAAAAAAAA",
          "display": "RETURN VISIT DATE"
        }, {
          "system": "https://cielterminology.org",
          "code": "5096"
        } ],
        "text": "RETURN VISIT DATE"
      },
      "subject": {
        "reference": "Patient/b6894789-1d2c-11eb-8abc-0242e805c5c5",
        "type": "Patient",
        "display": "Mainstore Mainstore Mainstore (OpenMRS ID: MGFVTC)"
      },
      "encounter": {
        "reference": "Encounter/319ec4a4-1d2e-11eb-8abc-0242e805c5c5",
        "type": "Encounter"
      },
      "effectiveDateTime": "2017-09-06T00:00:00+00:00",
      "issued": "2020-11-02T20:09:40.000+00:00",
      "valueDateTime": "2017-11-05T00:00:00+00:00"
    },
    "request": {
      "method": "PUT",
      "url": "Observation/319ec4a4-1d2e-11eb-8abc-0242e805c5c5"
    }
  }, {
    "resource": {
      "resourceType": "Observation",
      "id": "31a5b40b-1d2e-11eb-8abc-0242e805c5c5",
      "meta": {
        "versionId": "1604347780000",
        "lastUpdated": "2020-11-02T20:09:40.000+00:00"
      },
      "status": "final",
      "code": {
        "coding": [ {
          "code": "5096AAAAAAAAAAAAAAAAAAAAAAAAAAAAAAAA",
          "display": "RETURN VISIT DATE"
        }, {
          "system": "https://cielterminology.org",
          "code": "5096"
        } ],
        "text": "RETURN VISIT DATE"
      },
      "subject": {
        "reference": "Patient/b6894789-1d2c-11eb-8abc-0242e805c5c5",
        "type": "Patient",
        "display": "Mainstore Mainstore Mainstore (OpenMRS ID: MGFVTC)"
      },
      "encounter": {
        "reference": "Encounter/31a52bc2-1d2e-11eb-8abc-0242e805c5c5",
        "type": "Encounter"
      },
      "effectiveDateTime": "2018-02-07T00:00:00+00:00",
      "issued": "2020-11-02T20:09:40.000+00:00",
      "valueDateTime": "2018-04-08T00:00:00+00:00"
    },
    "request": {
      "method": "PUT",
      "url": "Observation/31a52bc2-1d2e-11eb-8abc-0242e805c5c5"
    }
  }, {
    "resource": {
      "resourceType": "Observation",
      "id": "31b7aec6-1d2e-11eb-8abc-0242e805c5c5",
      "meta": {
        "versionId": "1604347780000",
        "lastUpdated": "2020-11-02T20:09:40.000+00:00"
      },
      "status": "final",
      "code": {
        "coding": [ {
          "code": "5096AAAAAAAAAAAAAAAAAAAAAAAAAAAAAAAA",
          "display": "RETURN VISIT DATE"
        }, {
          "system": "https://cielterminology.org",
          "code": "5096"
        } ],
        "text": "RETURN VISIT DATE"
      },
      "subject": {
        "reference": "Patient/b6894789-1d2c-11eb-8abc-0242e805c5c5",
        "type": "Patient",
        "display": "Mainstore Mainstore Mainstore (OpenMRS ID: MGFVTC)"
      },
      "encounter": {
        "reference": "Encounter/31b71a2b-1d2e-11eb-8abc-0242e805c5c5",
        "type": "Encounter"
      },
      "effectiveDateTime": "2018-04-05T00:00:00+00:00",
      "issued": "2020-11-02T20:09:40.000+00:00",
      "valueDateTime": "2018-05-05T00:00:00+00:00"
    },
    "request": {
      "method": "PUT",
      "url": "Observation/31b71a2b-1d2e-11eb-8abc-0242e805c5c5"
    }
  }, {
    "resource": {
      "resourceType": "Observation",
      "id": "31c03a8e-1d2e-11eb-8abc-0242e805c5c5",
      "meta": {
        "versionId": "1604347780000",
        "lastUpdated": "2020-11-02T20:09:40.000+00:00"
      },
      "status": "final",
      "code": {
        "coding": [ {
          "code": "5096AAAAAAAAAAAAAAAAAAAAAAAAAAAAAAAA",
          "display": "RETURN VISIT DATE"
        }, {
          "system": "https://cielterminology.org",
          "code": "5096"
        } ],
        "text": "RETURN VISIT DATE"
      },
      "subject": {
        "reference": "Patient/b6894789-1d2c-11eb-8abc-0242e805c5c5",
        "type": "Patient",
        "display": "Mainstore Mainstore Mainstore (OpenMRS ID: MGFVTC)"
      },
      "encounter": {
        "reference": "Encounter/31bff9b5-1d2e-11eb-8abc-0242e805c5c5",
        "type": "Encounter"
      },
      "effectiveDateTime": "2018-05-04T00:00:00+00:00",
      "issued": "2020-11-02T20:09:40.000+00:00",
      "valueDateTime": "2018-07-03T00:00:00+00:00"
    },
    "request": {
      "method": "PUT",
      "url": "Observation/31bff9b5-1d2e-11eb-8abc-0242e805c5c5"
    }
  }, {
    "resource": {
      "resourceType": "Observation",
      "id": "31ca9979-1d2e-11eb-8abc-0242e805c5c5",
      "meta": {
        "versionId": "1604347780000",
        "lastUpdated": "2020-11-02T20:09:40.000+00:00"
      },
      "status": "final",
      "code": {
        "coding": [ {
          "code": "5096AAAAAAAAAAAAAAAAAAAAAAAAAAAAAAAA",
          "display": "RETURN VISIT DATE"
        }, {
          "system": "https://cielterminology.org",
          "code": "5096"
        } ],
        "text": "RETURN VISIT DATE"
      },
      "subject": {
        "reference": "Patient/b6894789-1d2c-11eb-8abc-0242e805c5c5",
        "type": "Patient",
        "display": "Mainstore Mainstore Mainstore (OpenMRS ID: MGFVTC)"
      },
      "encounter": {
        "reference": "Encounter/31ca28db-1d2e-11eb-8abc-0242e805c5c5",
        "type": "Encounter"
      },
      "effectiveDateTime": "2018-05-07T00:00:00+00:00",
      "issued": "2020-11-02T20:09:40.000+00:00",
      "valueDateTime": "2018-06-06T00:00:00+00:00"
    },
    "request": {
      "method": "PUT",
      "url": "Observation/31ca28db-1d2e-11eb-8abc-0242e805c5c5"
    }
  }, {
    "resource": {
      "resourceType": "Observation",
      "id": "31d1223d-1d2e-11eb-8abc-0242e805c5c5",
      "meta": {
        "versionId": "1604347780000",
        "lastUpdated": "2020-11-02T20:09:40.000+00:00"
      },
      "status": "final",
      "code": {
        "coding": [ {
          "code": "5096AAAAAAAAAAAAAAAAAAAAAAAAAAAAAAAA",
          "display": "RETURN VISIT DATE"
        }, {
          "system": "https://cielterminology.org",
          "code": "5096"
        } ],
        "text": "RETURN VISIT DATE"
      },
      "subject": {
        "reference": "Patient/b6894789-1d2c-11eb-8abc-0242e805c5c5",
        "type": "Patient",
        "display": "Mainstore Mainstore Mainstore (OpenMRS ID: MGFVTC)"
      },
      "encounter": {
        "reference": "Encounter/31d095ac-1d2e-11eb-8abc-0242e805c5c5",
        "type": "Encounter"
      },
      "effectiveDateTime": "2018-06-04T00:00:00+00:00",
      "issued": "2020-11-02T20:09:40.000+00:00",
      "valueDateTime": "2018-07-30T00:00:00+00:00"
    },
    "request": {
      "method": "PUT",
      "url": "Observation/31d095ac-1d2e-11eb-8abc-0242e805c5c5"
    }
  }, {
    "resource": {
      "resourceType": "Observation",
      "id": "31d77ff3-1d2e-11eb-8abc-0242e805c5c5",
      "meta": {
        "versionId": "1604347780000",
        "lastUpdated": "2020-11-02T20:09:40.000+00:00"
      },
      "status": "final",
      "code": {
        "coding": [ {
          "code": "5096AAAAAAAAAAAAAAAAAAAAAAAAAAAAAAAA",
          "display": "RETURN VISIT DATE"
        }, {
          "system": "https://cielterminology.org",
          "code": "5096"
        } ],
        "text": "RETURN VISIT DATE"
      },
      "subject": {
        "reference": "Patient/b6894789-1d2c-11eb-8abc-0242e805c5c5",
        "type": "Patient",
        "display": "Mainstore Mainstore Mainstore (OpenMRS ID: MGFVTC)"
      },
      "encounter": {
        "reference": "Encounter/31d6f45e-1d2e-11eb-8abc-0242e805c5c5",
        "type": "Encounter"
      },
      "effectiveDateTime": "2018-07-30T00:00:00+00:00",
      "issued": "2020-11-02T20:09:40.000+00:00",
      "valueDateTime": "2018-09-03T00:00:00+00:00"
    },
    "request": {
      "method": "PUT",
      "url": "Observation/31d6f45e-1d2e-11eb-8abc-0242e805c5c5"
    }
  }, {
    "resource": {
      "resourceType": "Observation",
      "id": "31e2d4a6-1d2e-11eb-8abc-0242e805c5c5",
      "meta": {
        "versionId": "1604347780000",
        "lastUpdated": "2020-11-02T20:09:40.000+00:00"
      },
      "status": "final",
      "code": {
        "coding": [ {
          "code": "5096AAAAAAAAAAAAAAAAAAAAAAAAAAAAAAAA",
          "display": "RETURN VISIT DATE"
        }, {
          "system": "https://cielterminology.org",
          "code": "5096"
        } ],
        "text": "RETURN VISIT DATE"
      },
      "subject": {
        "reference": "Patient/b6894789-1d2c-11eb-8abc-0242e805c5c5",
        "type": "Patient",
        "display": "Mainstore Mainstore Mainstore (OpenMRS ID: MGFVTC)"
      },
      "encounter": {
        "reference": "Encounter/31e259fc-1d2e-11eb-8abc-0242e805c5c5",
        "type": "Encounter"
      },
      "effectiveDateTime": "2018-08-22T00:00:00+00:00",
      "issued": "2020-11-02T20:09:40.000+00:00",
      "valueDateTime": "2018-09-10T00:00:00+00:00"
    },
    "request": {
      "method": "PUT",
      "url": "Observation/31e259fc-1d2e-11eb-8abc-0242e805c5c5"
    }
  }, {
    "resource": {
      "resourceType": "Observation",
      "id": "31e92b27-1d2e-11eb-8abc-0242e805c5c5",
      "meta": {
        "versionId": "1604347780000",
        "lastUpdated": "2020-11-02T20:09:40.000+00:00"
      },
      "status": "final",
      "code": {
        "coding": [ {
          "code": "5096AAAAAAAAAAAAAAAAAAAAAAAAAAAAAAAA",
          "display": "RETURN VISIT DATE"
        }, {
          "system": "https://cielterminology.org",
          "code": "5096"
        } ],
        "text": "RETURN VISIT DATE"
      },
      "subject": {
        "reference": "Patient/b6894789-1d2c-11eb-8abc-0242e805c5c5",
        "type": "Patient",
        "display": "Mainstore Mainstore Mainstore (OpenMRS ID: MGFVTC)"
      },
      "encounter": {
        "reference": "Encounter/31e8a7c8-1d2e-11eb-8abc-0242e805c5c5",
        "type": "Encounter"
      },
      "effectiveDateTime": "2018-09-10T00:00:00+00:00",
      "issued": "2020-11-02T20:09:40.000+00:00",
      "valueDateTime": "2018-11-09T00:00:00+00:00"
    },
    "request": {
      "method": "PUT",
      "url": "Observation/31e8a7c8-1d2e-11eb-8abc-0242e805c5c5"
    }
  }, {
    "resource": {
      "resourceType": "Observation",
      "id": "31ef8bea-1d2e-11eb-8abc-0242e805c5c5",
      "meta": {
        "versionId": "1604347780000",
        "lastUpdated": "2020-11-02T20:09:40.000+00:00"
      },
      "status": "final",
      "code": {
        "coding": [ {
          "code": "5096AAAAAAAAAAAAAAAAAAAAAAAAAAAAAAAA",
          "display": "RETURN VISIT DATE"
        }, {
          "system": "https://cielterminology.org",
          "code": "5096"
        } ],
        "text": "RETURN VISIT DATE"
      },
      "subject": {
        "reference": "Patient/b6894789-1d2c-11eb-8abc-0242e805c5c5",
        "type": "Patient",
        "display": "Mainstore Mainstore Mainstore (OpenMRS ID: MGFVTC)"
      },
      "encounter": {
        "reference": "Encounter/31ef1023-1d2e-11eb-8abc-0242e805c5c5",
        "type": "Encounter"
      },
      "effectiveDateTime": "2018-11-14T00:00:00+00:00",
      "issued": "2020-11-02T20:09:40.000+00:00",
      "valueDateTime": "2019-01-13T00:00:00+00:00"
    },
    "request": {
      "method": "PUT",
      "url": "Observation/31ef1023-1d2e-11eb-8abc-0242e805c5c5"
    }
  }, {
    "resource": {
      "resourceType": "Observation",
      "id": "31fa48b5-1d2e-11eb-8abc-0242e805c5c5",
      "meta": {
        "versionId": "1604347780000",
        "lastUpdated": "2020-11-02T20:09:40.000+00:00"
      },
      "status": "final",
      "code": {
        "coding": [ {
          "code": "5096AAAAAAAAAAAAAAAAAAAAAAAAAAAAAAAA",
          "display": "RETURN VISIT DATE"
        }, {
          "system": "https://cielterminology.org",
          "code": "5096"
        } ],
        "text": "RETURN VISIT DATE"
      },
      "subject": {
        "reference": "Patient/b6894789-1d2c-11eb-8abc-0242e805c5c5",
        "type": "Patient",
        "display": "Mainstore Mainstore Mainstore (OpenMRS ID: MGFVTC)"
      },
      "encounter": {
        "reference": "Encounter/31f956ae-1d2e-11eb-8abc-0242e805c5c5",
        "type": "Encounter"
      },
      "effectiveDateTime": "2020-03-23T00:00:00+00:00",
      "issued": "2020-11-02T20:09:40.000+00:00",
      "valueDateTime": "2020-06-21T00:00:00+00:00"
    },
    "request": {
      "method": "PUT",
      "url": "Observation/31f956ae-1d2e-11eb-8abc-0242e805c5c5"
    }
  }, {
    "resource": {
      "resourceType": "Observation",
      "id": "320098cd-1d2e-11eb-8abc-0242e805c5c5",
      "meta": {
        "versionId": "1604347780000",
        "lastUpdated": "2020-11-02T20:09:40.000+00:00"
      },
      "status": "final",
      "code": {
        "coding": [ {
          "code": "5096AAAAAAAAAAAAAAAAAAAAAAAAAAAAAAAA",
          "display": "RETURN VISIT DATE"
        }, {
          "system": "https://cielterminology.org",
          "code": "5096"
        } ],
        "text": "RETURN VISIT DATE"
      },
      "subject": {
        "reference": "Patient/b6894789-1d2c-11eb-8abc-0242e805c5c5",
        "type": "Patient",
        "display": "Mainstore Mainstore Mainstore (OpenMRS ID: MGFVTC)"
      },
      "encounter": {
        "reference": "Encounter/31ffab97-1d2e-11eb-8abc-0242e805c5c5",
        "type": "Encounter"
      },
      "effectiveDateTime": "2020-06-08T00:00:00+00:00",
      "issued": "2020-11-02T20:09:40.000+00:00",
      "valueDateTime": "2020-08-07T00:00:00+00:00"
    },
    "request": {
      "method": "PUT",
      "url": "Observation/31ffab97-1d2e-11eb-8abc-0242e805c5c5"
    }
  }, {
    "resource": {
      "resourceType": "Observation",
      "id": "320d2930-1d2e-11eb-8abc-0242e805c5c5",
      "meta": {
        "versionId": "1604347781000",
        "lastUpdated": "2020-11-02T20:09:41.000+00:00"
      },
      "status": "final",
      "code": {
        "coding": [ {
          "code": "5096AAAAAAAAAAAAAAAAAAAAAAAAAAAAAAAA",
          "display": "RETURN VISIT DATE"
        }, {
          "system": "https://cielterminology.org",
          "code": "5096"
        } ],
        "text": "RETURN VISIT DATE"
      },
      "subject": {
        "reference": "Patient/b6894789-1d2c-11eb-8abc-0242e805c5c5",
        "type": "Patient",
        "display": "Mainstore Mainstore Mainstore (OpenMRS ID: MGFVTC)"
      },
      "encounter": {
        "reference": "Encounter/320c639a-1d2e-11eb-8abc-0242e805c5c5",
        "type": "Encounter"
      },
      "effectiveDateTime": "2020-08-04T00:00:00+00:00",
      "issued": "2020-11-02T20:09:41.000+00:00",
      "valueDateTime": "2020-12-12T00:00:00+00:00"
    },
    "request": {
      "method": "PUT",
      "url": "Observation/320c639a-1d2e-11eb-8abc-0242e805c5c5"
    }
  }, {
    "resource": {
      "resourceType": "Observation",
      "id": "d0b101d7-1b99-4be8-85aa-5c08629ab525",
      "meta": {
        "versionId": "1607942985000",
        "lastUpdated": "2020-12-14T10:49:45.000+00:00"
      },
      "status": "final",
      "code": {
        "coding": [ {
          "code": "5096AAAAAAAAAAAAAAAAAAAAAAAAAAAAAAAA",
          "display": "RETURN VISIT DATE"
        }, {
          "system": "https://cielterminology.org",
          "code": "5096"
        } ],
        "text": "RETURN VISIT DATE"
      },
      "subject": {
        "reference": "Patient/b6894789-1d2c-11eb-8abc-0242e805c5c5",
        "type": "Patient",
        "display": "Mainstore Mainstore Mainstore (OpenMRS ID: MGFVTC)"
      },
      "encounter": {
        "reference": "Encounter/89a73aae-31d6-4511-a4c9-a509602f8bd3",
        "type": "Encounter"
      },
      "effectiveDateTime": "2020-11-25T10:48:00+00:00",
      "issued": "2020-12-14T10:49:45.000+00:00",
      "valueDateTime": "2021-02-25T00:00:00+00:00"
    },
    "request": {
      "method": "PUT",
      "url": "Observation/89a73aae-31d6-4511-a4c9-a509602f8bd3"
    }
  }, {
    "resource": {
      "resourceType": "Observation",
      "id": "ed2f5a35-b5bc-4104-a6aa-25919ed56ceb",
      "meta": {
        "versionId": "1616079064000",
        "lastUpdated": "2021-03-18T14:51:04.000+00:00"
      },
      "status": "final",
      "code": {
        "coding": [ {
          "code": "5096AAAAAAAAAAAAAAAAAAAAAAAAAAAAAAAA",
          "display": "RETURN VISIT DATE"
        }, {
          "system": "https://cielterminology.org",
          "code": "5096"
        } ],
        "text": "RETURN VISIT DATE"
      },
      "subject": {
        "reference": "Patient/b6894789-1d2c-11eb-8abc-0242e805c5c5",
        "type": "Patient",
        "display": "Mainstore Mainstore Mainstore (OpenMRS ID: MGFVTC)"
      },
      "encounter": {
        "reference": "Encounter/e78f0c2a-bbd1-4e08-8142-3bcca7b05131",
        "type": "Encounter"
      },
      "effectiveDateTime": "2021-03-11T14:50:00+00:00",
      "issued": "2021-03-18T14:51:04.000+00:00",
      "valueDateTime": "2021-06-17T00:00:00+00:00"
    },
    "request": {
      "method": "PUT",
      "url": "Observation/e78f0c2a-bbd1-4e08-8142-3bcca7b05131"
    }
  }, {
    "resource": {
      "resourceType": "Observation",
      "id": "ff15dc2d-cfeb-47e9-9d82-8da40d873610",
      "meta": {
        "versionId": "1623935870000",
        "lastUpdated": "2021-06-17T13:17:50.000+00:00"
      },
      "status": "final",
      "code": {
        "coding": [ {
          "code": "5096AAAAAAAAAAAAAAAAAAAAAAAAAAAAAAAA",
          "display": "RETURN VISIT DATE"
        }, {
          "system": "https://cielterminology.org",
          "code": "5096"
        } ],
        "text": "RETURN VISIT DATE"
      },
      "subject": {
        "reference": "Patient/b6894789-1d2c-11eb-8abc-0242e805c5c5",
        "type": "Patient",
        "display": "Mainstore Mainstore Mainstore (OpenMRS ID: MGFVTC)"
      },
      "encounter": {
        "reference": "Encounter/b9364be3-92ac-439b-b6a9-9307206812de",
        "type": "Encounter"
      },
      "effectiveDateTime": "2021-06-17T13:17:27+00:00",
      "issued": "2021-06-17T13:17:50.000+00:00",
      "valueDateTime": "2021-10-12T00:00:00+00:00"
    },
    "request": {
      "method": "PUT",
      "url": "Observation/b9364be3-92ac-439b-b6a9-9307206812de"
    }
  }, {
    "resource": {
      "resourceType": "Observation",
      "id": "9782a2d1-f5bf-4ddb-b5d1-7598eefaa345",
      "meta": {
        "versionId": "1634389349000",
        "lastUpdated": "2021-10-16T13:02:29.000+00:00"
      },
      "status": "final",
      "code": {
        "coding": [ {
          "code": "5096AAAAAAAAAAAAAAAAAAAAAAAAAAAAAAAA",
          "display": "RETURN VISIT DATE"
        }, {
          "system": "https://cielterminology.org",
          "code": "5096"
        } ],
        "text": "RETURN VISIT DATE"
      },
      "subject": {
        "reference": "Patient/b6894789-1d2c-11eb-8abc-0242e805c5c5",
        "type": "Patient",
        "display": "Mainstore Mainstore Mainstore (OpenMRS ID: MGFVTC)"
      },
      "encounter": {
        "reference": "Encounter/4b0e64b9-d665-48c6-8fb1-b7cf3d19f4d0",
        "type": "Encounter"
      },
      "effectiveDateTime": "2021-10-16T13:02:02+00:00",
      "issued": "2021-10-16T13:02:29.000+00:00",
      "valueDateTime": "2022-01-11T00:00:00+00:00"
    },
    "request": {
      "method": "PUT",
      "url": "Observation/4b0e64b9-d665-48c6-8fb1-b7cf3d19f4d0"
    }
  }, {
    "resource": {
      "resourceType": "Observation",
      "id": "c677810f-ba22-4da6-9c80-167dfbb87f05",
      "meta": {
        "versionId": "1647787319000",
        "lastUpdated": "2022-03-20T14:41:59.000+00:00"
      },
      "status": "final",
      "code": {
        "coding": [ {
          "code": "5096AAAAAAAAAAAAAAAAAAAAAAAAAAAAAAAA",
          "display": "RETURN VISIT DATE"
        }, {
          "system": "https://cielterminology.org",
          "code": "5096"
        } ],
        "text": "RETURN VISIT DATE"
      },
      "subject": {
        "reference": "Patient/b6894789-1d2c-11eb-8abc-0242e805c5c5",
        "type": "Patient",
        "display": "Mainstore Mainstore Mainstore (OpenMRS ID: MGFVTC)"
      },
      "encounter": {
        "reference": "Encounter/12855f5a-6870-480d-aeb0-4fd76d9fff57",
        "type": "Encounter"
      },
      "effectiveDateTime": "2022-03-20T14:40:43+00:00",
      "issued": "2022-03-20T14:41:59.000+00:00",
      "valueDateTime": "2022-06-23T00:00:00+00:00"
    },
    "request": {
      "method": "PUT",
      "url": "Observation/12855f5a-6870-480d-aeb0-4fd76d9fff57"
    }
  }, {
    "resource": {
      "resourceType": "Observation",
      "id": "f3751bb7-6fd6-4cfb-9eec-a574cf7d4663",
      "meta": {
        "versionId": "1656074547000",
        "lastUpdated": "2022-06-24T12:42:27.000+00:00"
      },
      "status": "final",
      "code": {
        "coding": [ {
          "code": "5096AAAAAAAAAAAAAAAAAAAAAAAAAAAAAAAA",
          "display": "RETURN VISIT DATE"
        }, {
          "system": "https://cielterminology.org",
          "code": "5096"
        } ],
        "text": "RETURN VISIT DATE"
      },
      "subject": {
        "reference": "Patient/b6894789-1d2c-11eb-8abc-0242e805c5c5",
        "type": "Patient",
        "display": "Mainstore Mainstore Mainstore (OpenMRS ID: MGFVTC)"
      },
      "encounter": {
        "reference": "Encounter/c9efa6a9-7196-4550-9bac-6ddf5126c962",
        "type": "Encounter"
      },
      "effectiveDateTime": "2022-06-23T12:40:00+00:00",
      "issued": "2022-06-24T12:42:27.000+00:00",
      "valueDateTime": "2022-11-22T00:00:00+00:00"
    },
    "request": {
      "method": "PUT",
      "url": "Observation/c9efa6a9-7196-4550-9bac-6ddf5126c962"
    }
  }, {
    "resource": {
      "resourceType": "Observation",
      "id": "2498896d-2e67-4462-a790-9c02e9b41a75",
      "meta": {
        "versionId": "1669380637000",
        "lastUpdated": "2022-11-25T12:50:37.000+00:00"
      },
      "status": "final",
      "code": {
        "coding": [ {
          "code": "5096AAAAAAAAAAAAAAAAAAAAAAAAAAAAAAAA",
          "display": "RETURN VISIT DATE"
        }, {
          "system": "https://cielterminology.org",
          "code": "5096"
        } ],
        "text": "RETURN VISIT DATE"
      },
      "subject": {
        "reference": "Patient/b6894789-1d2c-11eb-8abc-0242e805c5c5",
        "type": "Patient",
        "display": "Mainstore Mainstore Mainstore (OpenMRS ID: MGFVTC)"
      },
      "encounter": {
        "reference": "Encounter/e7b3327f-bcc7-4bd0-ad91-197ae95dfeb3",
        "type": "Encounter"
      },
      "effectiveDateTime": "2022-11-22T12:49:00+00:00",
      "issued": "2022-11-25T12:50:37.000+00:00",
      "valueDateTime": "2023-02-16T00:00:00+00:00"
    },
    "request": {
      "method": "PUT",
      "url": "Observation/e7b3327f-bcc7-4bd0-ad91-197ae95dfeb3"
    }
  }, {
    "resource": {
      "resourceType": "Observation",
      "id": "29007e26-f7ae-4c3b-babe-9f0c36dd669f",
      "meta": {
        "versionId": "1676549295000",
        "lastUpdated": "2023-02-16T12:08:15.000+00:00"
      },
      "status": "final",
      "code": {
        "coding": [ {
          "code": "5096AAAAAAAAAAAAAAAAAAAAAAAAAAAAAAAA",
          "display": "RETURN VISIT DATE"
        }, {
          "system": "https://cielterminology.org",
          "code": "5096"
        } ],
        "text": "RETURN VISIT DATE"
      },
      "subject": {
        "reference": "Patient/b6894789-1d2c-11eb-8abc-0242e805c5c5",
        "type": "Patient",
        "display": "Mainstore Mainstore Mainstore (OpenMRS ID: MGFVTC)"
      },
      "encounter": {
        "reference": "Encounter/aa35af9b-50ec-404c-b789-7a7a996fc249",
        "type": "Encounter"
      },
      "effectiveDateTime": "2023-02-16T12:07:03+00:00",
      "issued": "2023-02-16T12:08:15.000+00:00",
      "valueDateTime": "2023-08-22T00:00:00+00:00"
    },
    "request": {
      "method": "PUT",
      "url": "Observation/aa35af9b-50ec-404c-b789-7a7a996fc249"
    }
  }, {
    "resource": {
      "resourceType": "Observation",
      "id": "769045e9-ded1-4148-965a-90862738cb71",
      "meta": {
        "versionId": "1692624807000",
        "lastUpdated": "2023-08-21T13:33:27.000+00:00"
      },
      "status": "final",
      "code": {
        "coding": [ {
          "code": "5096AAAAAAAAAAAAAAAAAAAAAAAAAAAAAAAA",
          "display": "RETURN VISIT DATE"
        }, {
          "system": "https://cielterminology.org",
          "code": "5096"
        } ],
        "text": "RETURN VISIT DATE"
      },
      "subject": {
        "reference": "Patient/b6894789-1d2c-11eb-8abc-0242e805c5c5",
        "type": "Patient",
        "display": "Mainstore Mainstore Mainstore (OpenMRS ID: MGFVTC)"
      },
      "encounter": {
        "reference": "Encounter/85270145-686f-4c81-9923-1de2e748a85a",
        "type": "Encounter"
      },
      "effectiveDateTime": "2023-08-21T13:31:46+00:00",
      "issued": "2023-08-21T13:33:27.000+00:00",
      "valueDateTime": "2023-11-30T00:00:00+00:00"
    },
    "request": {
      "method": "PUT",
      "url": "Observation/85270145-686f-4c81-9923-1de2e748a85a"
    }
  }, {
    "resource": {
      "resourceType": "Patient",
      "id": "b6976eca-1d2c-11eb-8abc-0242e805c5c5",
      "meta": {
        "versionId": "1604347144000",
        "lastUpdated": "2020-11-02T19:59:04.000+00:00"
      },
      "identifier": [ {
        "id": "b6a689bc-1d2c-11eb-8abc-0242e805c5c5",
        "extension": [ {
          "url": "http://fhir.openmrs.org/ext/patient/identifier#location",
          "valueReference": {
            "reference": "Location/a92f9952-1c4c-4659-893b-a6b56a16b1df",
            "type": "Location",
            "display": "Ngarua Health Centre"
          }
        } ],
        "use": "official",
        "type": {
          "coding": [ {
            "code": "dfacd928-0370-4315-99d7-6ec1c9f7ae76"
          } ],
          "text": "OpenMRS ID"
        },
        "value": "MGFVU9"
      }, {
        "id": "b697d408-1d2c-11eb-8abc-0242e805c5c5",
        "extension": [ {
          "url": "http://fhir.openmrs.org/ext/patient/identifier#location",
          "valueReference": {
            "reference": "Location/a92f9952-1c4c-4659-893b-a6b56a16b1df",
            "type": "Location",
            "display": "Ngarua Health Centre"
          }
        } ],
        "use": "usual",
        "type": {
          "coding": [ {
            "code": "05ee9cf4-7242-4a17-b4d4-00f707265c8a"
          } ],
          "text": "Unique Patient Number"
        },
        "value": "1089005898"
      }, {
        "id": "3b8214d3-8cdf-4fb7-8bfd-c5727bf21da9",
        "extension": [ {
          "url": "http://fhir.openmrs.org/ext/patient/identifier#location",
          "valueReference": {
            "reference": "Location/a92f9952-1c4c-4659-893b-a6b56a16b1df",
            "type": "Location",
            "display": "Ngarua Health Centre"
          }
        } ],
        "use": "usual",
        "type": {
          "coding": [ {
            "code": "49af6cdc-7968-4abb-bf46-de10d7f4859f"
          } ],
          "text": "National ID"
        },
        "value": "99967968"
      }, {
        "id": "5e6763a3-cbf3-4c60-8006-3f7a9d64b264",
        "extension": [ {
          "url": "http://fhir.openmrs.org/ext/patient/identifier#location",
          "valueReference": {
            "reference": "Location/a92f9952-1c4c-4659-893b-a6b56a16b1df",
            "type": "Location",
            "display": "Ngarua Health Centre"
          }
        } ],
        "use": "usual",
        "type": {
          "coding": [ {
            "code": "f85081e2-b4be-4e48-b3a4-7994b69bb101"
          } ],
          "text": "National Unique patient identifier"
        },
        "value": "0000007070008"
      } ],
      "active": true,
      "name": [ {
        "id": "b6978cd2-1d2c-11eb-8abc-0242e805c5c5",
        "family": "MANI",
        "given": [ "MANI", "MANI" ]
      } ],
      "gender": "male",
      "birthDate": "1981-03-08",
      "deceasedBoolean": false,
      "address": [ {
        "id": "b697ab75-1d2c-11eb-8abc-0242e805c5c5",
        "extension": [ {
          "url": "http://fhir.openmrs.org/ext/address",
          "extension": [ {
            "url": "http://fhir.openmrs.org/ext/address#address1",
            "valueString": "328 address1"
          }, {
            "url": "http://fhir.openmrs.org/ext/address#address4",
            "valueString": "Marmanet"
          } ]
        } ],
        "use": "home",
        "city": "karandi",
        "district": "Laikipia",
        "state": "Laikipia West"
      } ]
    },
    "request": {
      "method": "PUT",
      "url": "Patient/b6976eca-1d2c-11eb-8abc-0242e805c5c5"
    }
  }, {
    "resource": {
      "resourceType": "Observation",
      "id": "6129aaff-e42a-4305-9bd4-8a19465ad078",
      "meta": {
        "versionId": "1685371734000",
        "lastUpdated": "2023-05-29T14:48:54.000+00:00"
      },
      "status": "final",
      "code": {
        "coding": [ {
          "code": "160540AAAAAAAAAAAAAAAAAAAAAAAAAAAAAA",
          "display": "Method of enrollment"
        }, {
          "system": "http://loinc.org",
          "code": "45252-4"
        }, {
          "system": "https://cielterminology.org",
          "code": "160540"
        } ],
        "text": "Method of enrollment"
      },
      "subject": {
        "reference": "Patient/b6976eca-1d2c-11eb-8abc-0242e805c5c5",
        "type": "Patient",
        "display": "MANI MANI MANI (OpenMRS ID: MGFVU9)"
      },
      "encounter": {
        "reference": "Encounter/12afbfa7-1d2d-11eb-8abc-0242e805c5c5",
        "type": "Encounter"
      },
      "effectiveDateTime": "2018-06-22T00:00:00+00:00",
      "issued": "2023-05-29T14:48:54.000+00:00",
      "valueCodeableConcept": {
        "coding": [ {
          "code": "160542AAAAAAAAAAAAAAAAAAAAAAAAAAAAAA",
          "display": "Outpatient department"
        }, {
          "system": "https://cielterminology.org",
          "code": "160542"
        }, {
          "system": "http://snomed.info/sct/",
          "code": "33022008"
        } ],
        "text": "Outpatient department"
      }
    },
    "request": {
      "method": "PUT",
      "url": "Observation/12afbfa7-1d2d-11eb-8abc-0242e805c5c5"
    }
  }, {
    "resource": {
      "resourceType": "Observation",
      "id": "77612ec6-1d2e-11eb-8abc-0242e805c5c5",
      "meta": {
        "versionId": "1604347897000",
        "lastUpdated": "2020-11-02T20:11:37.000+00:00"
      },
      "status": "final",
      "code": {
        "coding": [ {
          "code": "1193AAAAAAAAAAAAAAAAAAAAAAAAAAAAAAAA",
          "display": "CURRENT DRUGS USED"
        }, {
          "system": "https://cielterminology.org",
          "code": "1193"
        } ],
        "text": "CURRENT DRUGS USED"
      },
      "subject": {
        "reference": "Patient/b6976eca-1d2c-11eb-8abc-0242e805c5c5",
        "type": "Patient",
        "display": "MANI MANI MANI (OpenMRS ID: MGFVU9)"
      },
      "encounter": {
        "reference": "Encounter/7760edeb-1d2e-11eb-8abc-0242e805c5c5",
        "type": "Encounter"
      },
      "effectiveDateTime": "2017-11-03T00:00:00+00:00",
      "issued": "2020-11-02T20:11:37.000+00:00",
      "valueCodeableConcept": {
        "coding": [ {
          "code": "162561AAAAAAAAAAAAAAAAAAAAAAAAAAAAAA",
          "display": "Lamivudine / Lopinavir / Ritonavir / Zidovudine"
        }, {
          "system": "https://cielterminology.org",
          "code": "162561"
        } ],
        "text": "Lamivudine / Lopinavir / Ritonavir / Zidovudine"
      }
    },
    "request": {
      "method": "PUT",
      "url": "Observation/7760edeb-1d2e-11eb-8abc-0242e805c5c5"
    }
  }, {
    "resource": {
      "resourceType": "Observation",
      "id": "32170cb2-1d2e-11eb-8abc-0242e805c5c5",
      "meta": {
        "versionId": "1604347781000",
        "lastUpdated": "2020-11-02T20:09:41.000+00:00"
      },
      "status": "final",
      "code": {
        "coding": [ {
          "code": "5096AAAAAAAAAAAAAAAAAAAAAAAAAAAAAAAA",
          "display": "RETURN VISIT DATE"
        }, {
          "system": "https://cielterminology.org",
          "code": "5096"
        } ],
        "text": "RETURN VISIT DATE"
      },
      "subject": {
        "reference": "Patient/b6976eca-1d2c-11eb-8abc-0242e805c5c5",
        "type": "Patient",
        "display": "MANI MANI MANI (OpenMRS ID: MGFVU9)"
      },
      "encounter": {
        "reference": "Encounter/32169720-1d2e-11eb-8abc-0242e805c5c5",
        "type": "Encounter"
      },
      "effectiveDateTime": "2017-11-03T00:00:00+00:00",
      "issued": "2020-11-02T20:09:41.000+00:00",
      "valueDateTime": "2017-12-03T00:00:00+00:00"
    },
    "request": {
      "method": "PUT",
      "url": "Observation/32169720-1d2e-11eb-8abc-0242e805c5c5"
    }
  }, {
    "resource": {
      "resourceType": "Observation",
      "id": "322654a5-1d2e-11eb-8abc-0242e805c5c5",
      "meta": {
        "versionId": "1604347781000",
        "lastUpdated": "2020-11-02T20:09:41.000+00:00"
      },
      "status": "final",
      "code": {
        "coding": [ {
          "code": "5096AAAAAAAAAAAAAAAAAAAAAAAAAAAAAAAA",
          "display": "RETURN VISIT DATE"
        }, {
          "system": "https://cielterminology.org",
          "code": "5096"
        } ],
        "text": "RETURN VISIT DATE"
      },
      "subject": {
        "reference": "Patient/b6976eca-1d2c-11eb-8abc-0242e805c5c5",
        "type": "Patient",
        "display": "MANI MANI MANI (OpenMRS ID: MGFVU9)"
      },
      "encounter": {
        "reference": "Encounter/3225e529-1d2e-11eb-8abc-0242e805c5c5",
        "type": "Encounter"
      },
      "effectiveDateTime": "2017-12-01T00:00:00+00:00",
      "issued": "2020-11-02T20:09:41.000+00:00",
      "valueDateTime": "2018-01-05T00:00:00+00:00"
    },
    "request": {
      "method": "PUT",
      "url": "Observation/3225e529-1d2e-11eb-8abc-0242e805c5c5"
    }
  }, {
    "resource": {
      "resourceType": "Observation",
      "id": "322df74d-1d2e-11eb-8abc-0242e805c5c5",
      "meta": {
        "versionId": "1604347781000",
        "lastUpdated": "2020-11-02T20:09:41.000+00:00"
      },
      "status": "final",
      "code": {
        "coding": [ {
          "code": "5096AAAAAAAAAAAAAAAAAAAAAAAAAAAAAAAA",
          "display": "RETURN VISIT DATE"
        }, {
          "system": "https://cielterminology.org",
          "code": "5096"
        } ],
        "text": "RETURN VISIT DATE"
      },
      "subject": {
        "reference": "Patient/b6976eca-1d2c-11eb-8abc-0242e805c5c5",
        "type": "Patient",
        "display": "MANI MANI MANI (OpenMRS ID: MGFVU9)"
      },
      "encounter": {
        "reference": "Encounter/322d7435-1d2e-11eb-8abc-0242e805c5c5",
        "type": "Encounter"
      },
      "effectiveDateTime": "2018-06-22T00:00:00+00:00",
      "issued": "2020-11-02T20:09:41.000+00:00",
      "valueDateTime": "2018-07-10T00:00:00+00:00"
    },
    "request": {
      "method": "PUT",
      "url": "Observation/322d7435-1d2e-11eb-8abc-0242e805c5c5"
    }
  }, {
    "resource": {
      "resourceType": "Observation",
      "id": "323ac27e-1d2e-11eb-8abc-0242e805c5c5",
      "meta": {
        "versionId": "1604347781000",
        "lastUpdated": "2020-11-02T20:09:41.000+00:00"
      },
      "status": "final",
      "code": {
        "coding": [ {
          "code": "5096AAAAAAAAAAAAAAAAAAAAAAAAAAAAAAAA",
          "display": "RETURN VISIT DATE"
        }, {
          "system": "https://cielterminology.org",
          "code": "5096"
        } ],
        "text": "RETURN VISIT DATE"
      },
      "subject": {
        "reference": "Patient/b6976eca-1d2c-11eb-8abc-0242e805c5c5",
        "type": "Patient",
        "display": "MANI MANI MANI (OpenMRS ID: MGFVU9)"
      },
      "encounter": {
        "reference": "Encounter/323a3bd6-1d2e-11eb-8abc-0242e805c5c5",
        "type": "Encounter"
      },
      "effectiveDateTime": "2018-07-06T00:00:00+00:00",
      "issued": "2020-11-02T20:09:41.000+00:00",
      "valueDateTime": "2018-08-05T00:00:00+00:00"
    },
    "request": {
      "method": "PUT",
      "url": "Observation/323a3bd6-1d2e-11eb-8abc-0242e805c5c5"
    }
  }, {
    "resource": {
      "resourceType": "Observation",
      "id": "32506298-1d2e-11eb-8abc-0242e805c5c5",
      "meta": {
        "versionId": "1604347781000",
        "lastUpdated": "2020-11-02T20:09:41.000+00:00"
      },
      "status": "final",
      "code": {
        "coding": [ {
          "code": "5096AAAAAAAAAAAAAAAAAAAAAAAAAAAAAAAA",
          "display": "RETURN VISIT DATE"
        }, {
          "system": "https://cielterminology.org",
          "code": "5096"
        } ],
        "text": "RETURN VISIT DATE"
      },
      "subject": {
        "reference": "Patient/b6976eca-1d2c-11eb-8abc-0242e805c5c5",
        "type": "Patient",
        "display": "MANI MANI MANI (OpenMRS ID: MGFVU9)"
      },
      "encounter": {
        "reference": "Encounter/324fe59b-1d2e-11eb-8abc-0242e805c5c5",
        "type": "Encounter"
      },
      "effectiveDateTime": "2018-08-02T00:00:00+00:00",
      "issued": "2020-11-02T20:09:41.000+00:00",
      "valueDateTime": "2018-09-05T00:00:00+00:00"
    },
    "request": {
      "method": "PUT",
      "url": "Observation/324fe59b-1d2e-11eb-8abc-0242e805c5c5"
    }
  }, {
    "resource": {
      "resourceType": "Observation",
      "id": "3258092e-1d2e-11eb-8abc-0242e805c5c5",
      "meta": {
        "versionId": "1604347781000",
        "lastUpdated": "2020-11-02T20:09:41.000+00:00"
      },
      "status": "final",
      "code": {
        "coding": [ {
          "code": "5096AAAAAAAAAAAAAAAAAAAAAAAAAAAAAAAA",
          "display": "RETURN VISIT DATE"
        }, {
          "system": "https://cielterminology.org",
          "code": "5096"
        } ],
        "text": "RETURN VISIT DATE"
      },
      "subject": {
        "reference": "Patient/b6976eca-1d2c-11eb-8abc-0242e805c5c5",
        "type": "Patient",
        "display": "MANI MANI MANI (OpenMRS ID: MGFVU9)"
      },
      "encounter": {
        "reference": "Encounter/3257844a-1d2e-11eb-8abc-0242e805c5c5",
        "type": "Encounter"
      },
      "effectiveDateTime": "2018-09-05T00:00:00+00:00",
      "issued": "2020-11-02T20:09:41.000+00:00",
      "valueDateTime": "2018-10-18T00:00:00+00:00"
    },
    "request": {
      "method": "PUT",
      "url": "Observation/3257844a-1d2e-11eb-8abc-0242e805c5c5"
    }
  }, {
    "resource": {
      "resourceType": "Observation",
      "id": "325f8625-1d2e-11eb-8abc-0242e805c5c5",
      "meta": {
        "versionId": "1604347781000",
        "lastUpdated": "2020-11-02T20:09:41.000+00:00"
      },
      "status": "final",
      "code": {
        "coding": [ {
          "code": "5096AAAAAAAAAAAAAAAAAAAAAAAAAAAAAAAA",
          "display": "RETURN VISIT DATE"
        }, {
          "system": "https://cielterminology.org",
          "code": "5096"
        } ],
        "text": "RETURN VISIT DATE"
      },
      "subject": {
        "reference": "Patient/b6976eca-1d2c-11eb-8abc-0242e805c5c5",
        "type": "Patient",
        "display": "MANI MANI MANI (OpenMRS ID: MGFVU9)"
      },
      "encounter": {
        "reference": "Encounter/325f0bfd-1d2e-11eb-8abc-0242e805c5c5",
        "type": "Encounter"
      },
      "effectiveDateTime": "2018-11-22T00:00:00+00:00",
      "issued": "2020-11-02T20:09:41.000+00:00",
      "valueDateTime": "2018-12-22T00:00:00+00:00"
    },
    "request": {
      "method": "PUT",
      "url": "Observation/325f0bfd-1d2e-11eb-8abc-0242e805c5c5"
    }
  }, {
    "resource": {
      "resourceType": "Observation",
      "id": "3269bbf9-1d2e-11eb-8abc-0242e805c5c5",
      "meta": {
        "versionId": "1604347781000",
        "lastUpdated": "2020-11-02T20:09:41.000+00:00"
      },
      "status": "final",
      "code": {
        "coding": [ {
          "code": "5096AAAAAAAAAAAAAAAAAAAAAAAAAAAAAAAA",
          "display": "RETURN VISIT DATE"
        }, {
          "system": "https://cielterminology.org",
          "code": "5096"
        } ],
        "text": "RETURN VISIT DATE"
      },
      "subject": {
        "reference": "Patient/b6976eca-1d2c-11eb-8abc-0242e805c5c5",
        "type": "Patient",
        "display": "MANI MANI MANI (OpenMRS ID: MGFVU9)"
      },
      "encounter": {
        "reference": "Encounter/32694cee-1d2e-11eb-8abc-0242e805c5c5",
        "type": "Encounter"
      },
      "effectiveDateTime": "2019-02-07T00:00:00+00:00",
      "issued": "2020-11-02T20:09:41.000+00:00",
      "valueDateTime": "2019-03-13T00:00:00+00:00"
    },
    "request": {
      "method": "PUT",
      "url": "Observation/32694cee-1d2e-11eb-8abc-0242e805c5c5"
    }
  }, {
    "resource": {
      "resourceType": "Observation",
      "id": "32715b62-1d2e-11eb-8abc-0242e805c5c5",
      "meta": {
        "versionId": "1604347781000",
        "lastUpdated": "2020-11-02T20:09:41.000+00:00"
      },
      "status": "final",
      "code": {
        "coding": [ {
          "code": "5096AAAAAAAAAAAAAAAAAAAAAAAAAAAAAAAA",
          "display": "RETURN VISIT DATE"
        }, {
          "system": "https://cielterminology.org",
          "code": "5096"
        } ],
        "text": "RETURN VISIT DATE"
      },
      "subject": {
        "reference": "Patient/b6976eca-1d2c-11eb-8abc-0242e805c5c5",
        "type": "Patient",
        "display": "MANI MANI MANI (OpenMRS ID: MGFVU9)"
      },
      "encounter": {
        "reference": "Encounter/3270eda9-1d2e-11eb-8abc-0242e805c5c5",
        "type": "Encounter"
      },
      "effectiveDateTime": "2019-03-13T00:00:00+00:00",
      "issued": "2020-11-02T20:09:41.000+00:00",
      "valueDateTime": "2019-04-18T00:00:00+00:00"
    },
    "request": {
      "method": "PUT",
      "url": "Observation/3270eda9-1d2e-11eb-8abc-0242e805c5c5"
    }
  }, {
    "resource": {
      "resourceType": "Observation",
      "id": "327cb1d7-1d2e-11eb-8abc-0242e805c5c5",
      "meta": {
        "versionId": "1604347781000",
        "lastUpdated": "2020-11-02T20:09:41.000+00:00"
      },
      "status": "final",
      "code": {
        "coding": [ {
          "code": "5096AAAAAAAAAAAAAAAAAAAAAAAAAAAAAAAA",
          "display": "RETURN VISIT DATE"
        }, {
          "system": "https://cielterminology.org",
          "code": "5096"
        } ],
        "text": "RETURN VISIT DATE"
      },
      "subject": {
        "reference": "Patient/b6976eca-1d2c-11eb-8abc-0242e805c5c5",
        "type": "Patient",
        "display": "MANI MANI MANI (OpenMRS ID: MGFVU9)"
      },
      "encounter": {
        "reference": "Encounter/327c7c01-1d2e-11eb-8abc-0242e805c5c5",
        "type": "Encounter"
      },
      "effectiveDateTime": "2020-03-24T00:00:00+00:00",
      "issued": "2020-11-02T20:09:41.000+00:00",
      "valueDateTime": "2020-05-03T00:00:00+00:00"
    },
    "request": {
      "method": "PUT",
      "url": "Observation/327c7c01-1d2e-11eb-8abc-0242e805c5c5"
    }
  }, {
    "resource": {
      "resourceType": "Observation",
      "id": "328469c6-1d2e-11eb-8abc-0242e805c5c5",
      "meta": {
        "versionId": "1604347781000",
        "lastUpdated": "2020-11-02T20:09:41.000+00:00"
      },
      "status": "final",
      "code": {
        "coding": [ {
          "code": "5096AAAAAAAAAAAAAAAAAAAAAAAAAAAAAAAA",
          "display": "RETURN VISIT DATE"
        }, {
          "system": "https://cielterminology.org",
          "code": "5096"
        } ],
        "text": "RETURN VISIT DATE"
      },
      "subject": {
        "reference": "Patient/b6976eca-1d2c-11eb-8abc-0242e805c5c5",
        "type": "Patient",
        "display": "MANI MANI MANI (OpenMRS ID: MGFVU9)"
      },
      "encounter": {
        "reference": "Encounter/32842be5-1d2e-11eb-8abc-0242e805c5c5",
        "type": "Encounter"
      },
      "effectiveDateTime": "2020-05-28T00:00:00+00:00",
      "issued": "2020-11-02T20:09:41.000+00:00",
      "valueDateTime": "2020-06-27T00:00:00+00:00"
    },
    "request": {
      "method": "PUT",
      "url": "Observation/32842be5-1d2e-11eb-8abc-0242e805c5c5"
    }
  }, {
    "resource": {
      "resourceType": "Observation",
      "id": "328c78f4-1d2e-11eb-8abc-0242e805c5c5",
      "meta": {
        "versionId": "1604347781000",
        "lastUpdated": "2020-11-02T20:09:41.000+00:00"
      },
      "status": "final",
      "code": {
        "coding": [ {
          "code": "5096AAAAAAAAAAAAAAAAAAAAAAAAAAAAAAAA",
          "display": "RETURN VISIT DATE"
        }, {
          "system": "https://cielterminology.org",
          "code": "5096"
        } ],
        "text": "RETURN VISIT DATE"
      },
      "subject": {
        "reference": "Patient/b6976eca-1d2c-11eb-8abc-0242e805c5c5",
        "type": "Patient",
        "display": "MANI MANI MANI (OpenMRS ID: MGFVU9)"
      },
      "encounter": {
        "reference": "Encounter/328bbe1b-1d2e-11eb-8abc-0242e805c5c5",
        "type": "Encounter"
      },
      "effectiveDateTime": "2020-06-18T00:00:00+00:00",
      "issued": "2020-11-02T20:09:41.000+00:00",
      "valueDateTime": "2020-08-27T00:00:00+00:00"
    },
    "request": {
      "method": "PUT",
      "url": "Observation/328bbe1b-1d2e-11eb-8abc-0242e805c5c5"
    }
  }, {
    "resource": {
      "resourceType": "Observation",
      "id": "329386c7-1d2e-11eb-8abc-0242e805c5c5",
      "meta": {
        "versionId": "1604347781000",
        "lastUpdated": "2020-11-02T20:09:41.000+00:00"
      },
      "status": "final",
      "code": {
        "coding": [ {
          "code": "5096AAAAAAAAAAAAAAAAAAAAAAAAAAAAAAAA",
          "display": "RETURN VISIT DATE"
        }, {
          "system": "https://cielterminology.org",
          "code": "5096"
        } ],
        "text": "RETURN VISIT DATE"
      },
      "subject": {
        "reference": "Patient/b6976eca-1d2c-11eb-8abc-0242e805c5c5",
        "type": "Patient",
        "display": "MANI MANI MANI (OpenMRS ID: MGFVU9)"
      },
      "encounter": {
        "reference": "Encounter/3293636c-1d2e-11eb-8abc-0242e805c5c5",
        "type": "Encounter"
      },
      "effectiveDateTime": "2020-07-08T00:00:00+00:00",
      "issued": "2020-11-02T20:09:41.000+00:00",
      "valueDateTime": "2020-10-16T00:00:00+00:00"
    },
    "request": {
      "method": "PUT",
      "url": "Observation/3293636c-1d2e-11eb-8abc-0242e805c5c5"
    }
  }, {
    "resource": {
      "resourceType": "Observation",
      "id": "329b3ca9-1d2e-11eb-8abc-0242e805c5c5",
      "meta": {
        "versionId": "1604347781000",
        "lastUpdated": "2020-11-02T20:09:41.000+00:00"
      },
      "status": "final",
      "code": {
        "coding": [ {
          "code": "5096AAAAAAAAAAAAAAAAAAAAAAAAAAAAAAAA",
          "display": "RETURN VISIT DATE"
        }, {
          "system": "https://cielterminology.org",
          "code": "5096"
        } ],
        "text": "RETURN VISIT DATE"
      },
      "subject": {
        "reference": "Patient/b6976eca-1d2c-11eb-8abc-0242e805c5c5",
        "type": "Patient",
        "display": "MANI MANI MANI (OpenMRS ID: MGFVU9)"
      },
      "encounter": {
        "reference": "Encounter/329b13aa-1d2e-11eb-8abc-0242e805c5c5",
        "type": "Encounter"
      },
      "effectiveDateTime": "2020-10-19T00:00:00+00:00",
      "issued": "2020-11-02T20:09:41.000+00:00",
      "valueDateTime": "2020-11-28T00:00:00+00:00"
    },
    "request": {
      "method": "PUT",
      "url": "Observation/329b13aa-1d2e-11eb-8abc-0242e805c5c5"
    }
  }, {
    "resource": {
      "resourceType": "Observation",
      "id": "29b98c9c-bd3b-49cc-915b-689be015ffa3",
      "meta": {
        "versionId": "1606467292000",
        "lastUpdated": "2020-11-27T08:54:52.000+00:00"
      },
      "status": "final",
      "code": {
        "coding": [ {
          "code": "5096AAAAAAAAAAAAAAAAAAAAAAAAAAAAAAAA",
          "display": "RETURN VISIT DATE"
        }, {
          "system": "https://cielterminology.org",
          "code": "5096"
        } ],
        "text": "RETURN VISIT DATE"
      },
      "subject": {
        "reference": "Patient/b6976eca-1d2c-11eb-8abc-0242e805c5c5",
        "type": "Patient",
        "display": "MANI MANI MANI (OpenMRS ID: MGFVU9)"
      },
      "encounter": {
        "reference": "Encounter/811ca07c-36a7-4cc1-9c49-99d051ef0192",
        "type": "Encounter"
      },
      "effectiveDateTime": "2020-11-26T08:53:00+00:00",
      "issued": "2020-11-27T08:54:52.000+00:00",
      "valueDateTime": "2021-02-25T00:00:00+00:00"
    },
    "request": {
      "method": "PUT",
      "url": "Observation/811ca07c-36a7-4cc1-9c49-99d051ef0192"
    }
  }, {
    "resource": {
      "resourceType": "Observation",
      "id": "cbc2356c-2254-4c37-aa31-d9a465520a27",
      "meta": {
        "versionId": "1621936451000",
        "lastUpdated": "2021-05-25T09:54:11.000+00:00"
      },
      "status": "final",
      "code": {
        "coding": [ {
          "code": "5096AAAAAAAAAAAAAAAAAAAAAAAAAAAAAAAA",
          "display": "RETURN VISIT DATE"
        }, {
          "system": "https://cielterminology.org",
          "code": "5096"
        } ],
        "text": "RETURN VISIT DATE"
      },
      "subject": {
        "reference": "Patient/b6976eca-1d2c-11eb-8abc-0242e805c5c5",
        "type": "Patient",
        "display": "MANI MANI MANI (OpenMRS ID: MGFVU9)"
      },
      "encounter": {
        "reference": "Encounter/bf438208-c709-494b-a05b-c80d5fd1741f",
        "type": "Encounter"
      },
      "effectiveDateTime": "2021-05-25T09:53:32+00:00",
      "issued": "2021-05-25T09:54:11.000+00:00",
      "valueDateTime": "2021-06-22T00:00:00+00:00"
    },
    "request": {
      "method": "PUT",
      "url": "Observation/bf438208-c709-494b-a05b-c80d5fd1741f"
    }
  }, {
    "resource": {
      "resourceType": "Observation",
      "id": "87157af7-b2f9-41db-87ce-134d9fb9284a",
      "meta": {
        "versionId": "1624354821000",
        "lastUpdated": "2021-06-22T09:40:21.000+00:00"
      },
      "status": "final",
      "code": {
        "coding": [ {
          "code": "5096AAAAAAAAAAAAAAAAAAAAAAAAAAAAAAAA",
          "display": "RETURN VISIT DATE"
        }, {
          "system": "https://cielterminology.org",
          "code": "5096"
        } ],
        "text": "RETURN VISIT DATE"
      },
      "subject": {
        "reference": "Patient/b6976eca-1d2c-11eb-8abc-0242e805c5c5",
        "type": "Patient",
        "display": "MANI MANI MANI (OpenMRS ID: MGFVU9)"
      },
      "encounter": {
        "reference": "Encounter/fcaf8467-7f90-4328-8796-39e54f201b9c",
        "type": "Encounter"
      },
      "effectiveDateTime": "2021-06-22T09:37:58+00:00",
      "issued": "2021-06-22T09:40:21.000+00:00",
      "valueDateTime": "2021-09-16T00:00:00+00:00"
    },
    "request": {
      "method": "PUT",
      "url": "Observation/fcaf8467-7f90-4328-8796-39e54f201b9c"
    }
  }, {
    "resource": {
      "resourceType": "Observation",
      "id": "01a3ef98-5716-47fb-9cea-ed0687102489",
      "meta": {
        "versionId": "1629887209000",
        "lastUpdated": "2021-08-25T10:26:49.000+00:00"
      },
      "status": "final",
      "code": {
        "coding": [ {
          "code": "5096AAAAAAAAAAAAAAAAAAAAAAAAAAAAAAAA",
          "display": "RETURN VISIT DATE"
        }, {
          "system": "https://cielterminology.org",
          "code": "5096"
        } ],
        "text": "RETURN VISIT DATE"
      },
      "subject": {
        "reference": "Patient/b6976eca-1d2c-11eb-8abc-0242e805c5c5",
        "type": "Patient",
        "display": "MANI MANI MANI (OpenMRS ID: MGFVU9)"
      },
      "encounter": {
        "reference": "Encounter/a28e94a4-27a4-42d0-83ea-80046d7c847e",
        "type": "Encounter"
      },
      "effectiveDateTime": "2021-08-25T10:26:17+00:00",
      "issued": "2021-08-25T10:26:49.000+00:00",
      "valueDateTime": "2022-02-15T00:00:00+00:00"
    },
    "request": {
      "method": "PUT",
      "url": "Observation/a28e94a4-27a4-42d0-83ea-80046d7c847e"
    }
  }, {
    "resource": {
      "resourceType": "Observation",
      "id": "d0c1da0c-88f8-46fe-b9c9-f6be47f7d530",
      "meta": {
        "versionId": "1640791225000",
        "lastUpdated": "2021-12-29T15:20:25.000+00:00"
      },
      "status": "final",
      "code": {
        "coding": [ {
          "code": "5096AAAAAAAAAAAAAAAAAAAAAAAAAAAAAAAA",
          "display": "RETURN VISIT DATE"
        }, {
          "system": "https://cielterminology.org",
          "code": "5096"
        } ],
        "text": "RETURN VISIT DATE"
      },
      "subject": {
        "reference": "Patient/b6976eca-1d2c-11eb-8abc-0242e805c5c5",
        "type": "Patient",
        "display": "MANI MANI MANI (OpenMRS ID: MGFVU9)"
      },
      "encounter": {
        "reference": "Encounter/da71ef20-baf4-4bad-a331-e14279f194d6",
        "type": "Encounter"
      },
      "effectiveDateTime": "2021-12-29T15:19:51+00:00",
      "issued": "2021-12-29T15:20:25.000+00:00",
      "valueDateTime": "2022-02-15T00:00:00+00:00"
    },
    "request": {
      "method": "PUT",
      "url": "Observation/da71ef20-baf4-4bad-a331-e14279f194d6"
    }
  }, {
    "resource": {
      "resourceType": "Observation",
      "id": "62c2aa1c-5ace-4659-bd74-f2fba5a19975",
      "meta": {
        "versionId": "1648659471000",
        "lastUpdated": "2022-03-30T16:57:51.000+00:00"
      },
      "status": "final",
      "code": {
        "coding": [ {
          "code": "5096AAAAAAAAAAAAAAAAAAAAAAAAAAAAAAAA",
          "display": "RETURN VISIT DATE"
        }, {
          "system": "https://cielterminology.org",
          "code": "5096"
        } ],
        "text": "RETURN VISIT DATE"
      },
      "subject": {
        "reference": "Patient/b6976eca-1d2c-11eb-8abc-0242e805c5c5",
        "type": "Patient",
        "display": "MANI MANI MANI (OpenMRS ID: MGFVU9)"
      },
      "encounter": {
        "reference": "Encounter/672438c2-6af7-4c02-a76b-1bb91874f36a",
        "type": "Encounter"
      },
      "effectiveDateTime": "2022-03-30T16:55:57+00:00",
      "issued": "2022-03-30T16:57:51.000+00:00",
      "valueDateTime": "2022-06-23T00:00:00+00:00"
    },
    "request": {
      "method": "PUT",
      "url": "Observation/672438c2-6af7-4c02-a76b-1bb91874f36a"
    }
  }, {
    "resource": {
      "resourceType": "Observation",
      "id": "c7ba61ef-f181-4513-a7bb-e0b7e1bdef28",
      "meta": {
        "versionId": "1655975350000",
        "lastUpdated": "2022-06-23T09:09:10.000+00:00"
      },
      "status": "final",
      "code": {
        "coding": [ {
          "code": "5096AAAAAAAAAAAAAAAAAAAAAAAAAAAAAAAA",
          "display": "RETURN VISIT DATE"
        }, {
          "system": "https://cielterminology.org",
          "code": "5096"
        } ],
        "text": "RETURN VISIT DATE"
      },
      "subject": {
        "reference": "Patient/b6976eca-1d2c-11eb-8abc-0242e805c5c5",
        "type": "Patient",
        "display": "MANI MANI MANI (OpenMRS ID: MGFVU9)"
      },
      "encounter": {
        "reference": "Encounter/b4ae6693-94a9-4317-a9b1-bebca098d6f4",
        "type": "Encounter"
      },
      "effectiveDateTime": "2022-06-23T09:04:14+00:00",
      "issued": "2022-06-23T09:09:10.000+00:00",
      "valueDateTime": "2022-11-22T00:00:00+00:00"
    },
    "request": {
      "method": "PUT",
      "url": "Observation/b4ae6693-94a9-4317-a9b1-bebca098d6f4"
    }
  }, {
    "resource": {
      "resourceType": "Observation",
      "id": "929e2bf6-62f0-4e9f-bf2b-fbc62efebd51",
      "meta": {
        "versionId": "1669733103000",
        "lastUpdated": "2022-11-29T14:45:03.000+00:00"
      },
      "status": "final",
      "code": {
        "coding": [ {
          "code": "5096AAAAAAAAAAAAAAAAAAAAAAAAAAAAAAAA",
          "display": "RETURN VISIT DATE"
        }, {
          "system": "https://cielterminology.org",
          "code": "5096"
        } ],
        "text": "RETURN VISIT DATE"
      },
      "subject": {
        "reference": "Patient/b6976eca-1d2c-11eb-8abc-0242e805c5c5",
        "type": "Patient",
        "display": "MANI MANI MANI (OpenMRS ID: MGFVU9)"
      },
      "encounter": {
        "reference": "Encounter/06949845-7522-441c-bf06-cd831604f4c5",
        "type": "Encounter"
      },
      "effectiveDateTime": "2022-11-22T14:44:00+00:00",
      "issued": "2022-11-29T14:45:03.000+00:00",
      "valueDateTime": "2023-02-16T00:00:00+00:00"
    },
    "request": {
      "method": "PUT",
      "url": "Observation/06949845-7522-441c-bf06-cd831604f4c5"
    }
  }, {
    "resource": {
      "resourceType": "Observation",
      "id": "37e2c08b-a5a0-484c-b578-1a13c3ed1c1a",
      "meta": {
        "versionId": "1677499025000",
        "lastUpdated": "2023-02-27T11:57:05.000+00:00"
      },
      "status": "final",
      "code": {
        "coding": [ {
          "code": "5096AAAAAAAAAAAAAAAAAAAAAAAAAAAAAAAA",
          "display": "RETURN VISIT DATE"
        }, {
          "system": "https://cielterminology.org",
          "code": "5096"
        } ],
        "text": "RETURN VISIT DATE"
      },
      "subject": {
        "reference": "Patient/b6976eca-1d2c-11eb-8abc-0242e805c5c5",
        "type": "Patient",
        "display": "MANI MANI MANI (OpenMRS ID: MGFVU9)"
      },
      "encounter": {
        "reference": "Encounter/63c8e73d-193b-418a-a377-e86ebe8aac14",
        "type": "Encounter"
      },
      "effectiveDateTime": "2023-02-22T11:56:00+00:00",
      "issued": "2023-02-27T11:57:05.000+00:00",
      "valueDateTime": "2023-05-24T00:00:00+00:00"
    },
    "request": {
      "method": "PUT",
      "url": "Observation/63c8e73d-193b-418a-a377-e86ebe8aac14"
    }
  }, {
    "resource": {
      "resourceType": "Observation",
      "id": "1fb3d7db-8011-413f-b749-2233885d0ce8",
      "meta": {
        "versionId": "1684746710000",
        "lastUpdated": "2023-05-22T09:11:50.000+00:00"
      },
      "status": "final",
      "code": {
        "coding": [ {
          "code": "5096AAAAAAAAAAAAAAAAAAAAAAAAAAAAAAAA",
          "display": "RETURN VISIT DATE"
        }, {
          "system": "https://cielterminology.org",
          "code": "5096"
        } ],
        "text": "RETURN VISIT DATE"
      },
      "subject": {
        "reference": "Patient/b6976eca-1d2c-11eb-8abc-0242e805c5c5",
        "type": "Patient",
        "display": "MANI MANI MANI (OpenMRS ID: MGFVU9)"
      },
      "encounter": {
        "reference": "Encounter/e851334c-9083-40bd-acad-79d87f9d6494",
        "type": "Encounter"
      },
      "effectiveDateTime": "2023-05-22T09:08:58+00:00",
      "issued": "2023-05-22T09:11:50.000+00:00",
      "valueDateTime": "2023-08-17T00:00:00+00:00"
    },
    "request": {
      "method": "PUT",
      "url": "Observation/e851334c-9083-40bd-acad-79d87f9d6494"
    }
  }, {
    "resource": {
      "resourceType": "Observation",
      "id": "cff2985c-b8b6-45f8-ab2a-cea27212f80a",
      "meta": {
        "versionId": "1692270504000",
        "lastUpdated": "2023-08-17T11:08:24.000+00:00"
      },
      "status": "final",
      "code": {
        "coding": [ {
          "code": "5096AAAAAAAAAAAAAAAAAAAAAAAAAAAAAAAA",
          "display": "RETURN VISIT DATE"
        }, {
          "system": "https://cielterminology.org",
          "code": "5096"
        } ],
        "text": "RETURN VISIT DATE"
      },
      "subject": {
        "reference": "Patient/b6976eca-1d2c-11eb-8abc-0242e805c5c5",
        "type": "Patient",
        "display": "MANI MANI MANI (OpenMRS ID: MGFVU9)"
      },
      "encounter": {
        "reference": "Encounter/96f2ba0d-4cbf-44b9-9aff-715beffce324",
        "type": "Encounter"
      },
      "effectiveDateTime": "2023-08-17T09:21:48+00:00",
      "issued": "2023-08-17T11:08:24.000+00:00",
      "valueDateTime": "2023-11-16T00:00:00+00:00"
    },
    "request": {
      "method": "PUT",
      "url": "Observation/96f2ba0d-4cbf-44b9-9aff-715beffce324"
    }
  }, {
    "resource": {
      "resourceType": "Observation",
      "id": "1752ef7e-7482-4c0a-8ecb-717bddd199e6",
      "meta": {
        "versionId": "1700136769000",
        "lastUpdated": "2023-11-16T12:12:49.000+00:00"
      },
      "status": "final",
      "code": {
        "coding": [ {
          "code": "5096AAAAAAAAAAAAAAAAAAAAAAAAAAAAAAAA",
          "display": "RETURN VISIT DATE"
        }, {
          "system": "https://cielterminology.org",
          "code": "5096"
        } ],
        "text": "RETURN VISIT DATE"
      },
      "subject": {
        "reference": "Patient/b6976eca-1d2c-11eb-8abc-0242e805c5c5",
        "type": "Patient",
        "display": "MANI MANI MANI (OpenMRS ID: MGFVU9)"
      },
      "encounter": {
        "reference": "Encounter/9934d85b-1573-41ea-b226-ddb2e73cd502",
        "type": "Encounter"
      },
      "effectiveDateTime": "2023-11-16T12:10:35+00:00",
      "issued": "2023-11-16T12:12:49.000+00:00",
      "valueDateTime": "2024-06-13T00:00:00+00:00"
    },
    "request": {
      "method": "PUT",
      "url": "Observation/9934d85b-1573-41ea-b226-ddb2e73cd502"
    }
  }, {
    "resource": {
      "resourceType": "Observation",
      "id": "387e5744-1d2d-11eb-8abc-0242e805c5c5",
      "meta": {
        "versionId": "1604347362000",
        "lastUpdated": "2020-11-02T20:02:42.000+00:00"
      },
      "status": "final",
      "code": {
        "coding": [ {
          "code": "161555AAAAAAAAAAAAAAAAAAAAAAAAAAAAAA",
          "display": "Reason for discontinuation of program"
        }, {
          "system": "https://cielterminology.org",
          "code": "161555"
        } ],
        "text": "Reason for discontinuation of program"
      },
      "subject": {
        "reference": "Patient/b6976eca-1d2c-11eb-8abc-0242e805c5c5",
        "type": "Patient",
        "display": "MANI MANI MANI (OpenMRS ID: MGFVU9)"
      },
      "encounter": {
        "reference": "Encounter/387e308e-1d2d-11eb-8abc-0242e805c5c5",
        "type": "Encounter"
      },
      "effectiveDateTime": "2018-03-03T00:00:00+00:00",
      "issued": "2020-11-02T20:02:42.000+00:00",
      "valueCodeableConcept": {
        "coding": [ {
          "code": "5240AAAAAAAAAAAAAAAAAAAAAAAAAAAAAAAA",
          "display": "Lost to followup"
        }, {
          "system": "https://cielterminology.org",
          "code": "5240"
        }, {
          "system": "http://snomed.info/sct/",
          "code": "399307001"
        } ],
        "text": "Lost to followup"
      }
    },
    "request": {
      "method": "PUT",
      "url": "Observation/387e308e-1d2d-11eb-8abc-0242e805c5c5"
    }
  }, {
    "resource": {
      "resourceType": "Patient",
      "id": "b6a6be27-1d2c-11eb-8abc-0242e805c5c5",
      "meta": {
        "versionId": "1604347144000",
        "lastUpdated": "2020-11-02T19:59:04.000+00:00"
      },
      "identifier": [ {
        "id": "b6bc2d44-1d2c-11eb-8abc-0242e805c5c5",
        "extension": [ {
          "url": "http://fhir.openmrs.org/ext/patient/identifier#location",
          "valueReference": {
            "reference": "Location/a92f9952-1c4c-4659-893b-a6b56a16b1df",
            "type": "Location",
            "display": "Ngarua Health Centre"
          }
        } ],
        "use": "official",
        "type": {
          "coding": [ {
            "code": "dfacd928-0370-4315-99d7-6ec1c9f7ae76"
          } ],
          "text": "OpenMRS ID"
        },
        "value": "MGFVV6"
      }, {
        "id": "b6a746ff-1d2c-11eb-8abc-0242e805c5c5",
        "extension": [ {
          "url": "http://fhir.openmrs.org/ext/patient/identifier#location",
          "valueReference": {
            "reference": "Location/a92f9952-1c4c-4659-893b-a6b56a16b1df",
            "type": "Location",
            "display": "Ngarua Health Centre"
          }
        } ],
        "use": "usual",
        "type": {
          "coding": [ {
            "code": "05ee9cf4-7242-4a17-b4d4-00f707265c8a"
          } ],
          "text": "Unique Patient Number"
        },
        "value": "774"
      } ],
      "active": true,
      "name": [ {
        "id": "b6a6e577-1d2c-11eb-8abc-0242e805c5c5",
        "family": "Carel",
        "given": [ "Carel", "Carel" ]
      } ],
      "gender": "male",
      "birthDate": "1981-06-15",
      "deceasedBoolean": false,
      "address": [ {
        "id": "b6a70d23-1d2c-11eb-8abc-0242e805c5c5",
        "extension": [ {
          "url": "http://fhir.openmrs.org/ext/address",
          "extension": [ {
            "url": "http://fhir.openmrs.org/ext/address#address1",
            "valueString": "329 address1"
          } ]
        } ],
        "use": "old"
      } ]
    },
    "request": {
      "method": "PUT",
      "url": "Patient/b6a6be27-1d2c-11eb-8abc-0242e805c5c5"
    }
  }, {
    "resource": {
      "resourceType": "Observation",
      "id": "7788ac1a-1d2e-11eb-8abc-0242e805c5c5",
      "meta": {
        "versionId": "1604347897000",
        "lastUpdated": "2020-11-02T20:11:37.000+00:00"
      },
      "status": "final",
      "code": {
        "coding": [ {
          "code": "1193AAAAAAAAAAAAAAAAAAAAAAAAAAAAAAAA",
          "display": "CURRENT DRUGS USED"
        }, {
          "system": "https://cielterminology.org",
          "code": "1193"
        } ],
        "text": "CURRENT DRUGS USED"
      },
      "subject": {
        "reference": "Patient/b6a6be27-1d2c-11eb-8abc-0242e805c5c5",
        "type": "Patient",
        "display": "Carel Carel Carel (OpenMRS ID: MGFVV6)"
      },
      "encounter": {
        "reference": "Encounter/77886aa5-1d2e-11eb-8abc-0242e805c5c5",
        "type": "Encounter"
      },
      "effectiveDateTime": "2017-08-02T00:00:00+00:00",
      "issued": "2020-11-02T20:11:37.000+00:00",
      "valueCodeableConcept": {
        "coding": [ {
          "code": "164505AAAAAAAAAAAAAAAAAAAAAAAAAAAAAA",
          "display": "Lamivudine / Efavirenz / Tenofovir"
        }, {
          "system": "https://cielterminology.org",
          "code": "164505"
        } ],
        "text": "Lamivudine / Efavirenz / Tenofovir"
      }
    },
    "request": {
      "method": "PUT",
      "url": "Observation/77886aa5-1d2e-11eb-8abc-0242e805c5c5"
    }
  }, {
    "resource": {
      "resourceType": "Observation",
      "id": "32a6fdf5-1d2e-11eb-8abc-0242e805c5c5",
      "meta": {
        "versionId": "1604347782000",
        "lastUpdated": "2020-11-02T20:09:42.000+00:00"
      },
      "status": "final",
      "code": {
        "coding": [ {
          "code": "5096AAAAAAAAAAAAAAAAAAAAAAAAAAAAAAAA",
          "display": "RETURN VISIT DATE"
        }, {
          "system": "https://cielterminology.org",
          "code": "5096"
        } ],
        "text": "RETURN VISIT DATE"
      },
      "subject": {
        "reference": "Patient/b6a6be27-1d2c-11eb-8abc-0242e805c5c5",
        "type": "Patient",
        "display": "Carel Carel Carel (OpenMRS ID: MGFVV6)"
      },
      "encounter": {
        "reference": "Encounter/32a68205-1d2e-11eb-8abc-0242e805c5c5",
        "type": "Encounter"
      },
      "effectiveDateTime": "2017-08-02T00:00:00+00:00",
      "issued": "2020-11-02T20:09:42.000+00:00",
      "valueDateTime": "2017-10-31T00:00:00+00:00"
    },
    "request": {
      "method": "PUT",
      "url": "Observation/32a68205-1d2e-11eb-8abc-0242e805c5c5"
    }
  }, {
    "resource": {
      "resourceType": "Observation",
      "id": "388b31fb-1d2d-11eb-8abc-0242e805c5c5",
      "meta": {
        "versionId": "1604347362000",
        "lastUpdated": "2020-11-02T20:02:42.000+00:00"
      },
      "status": "final",
      "code": {
        "coding": [ {
          "code": "161555AAAAAAAAAAAAAAAAAAAAAAAAAAAAAA",
          "display": "Reason for discontinuation of program"
        }, {
          "system": "https://cielterminology.org",
          "code": "161555"
        } ],
        "text": "Reason for discontinuation of program"
      },
      "subject": {
        "reference": "Patient/b6a6be27-1d2c-11eb-8abc-0242e805c5c5",
        "type": "Patient",
        "display": "Carel Carel Carel (OpenMRS ID: MGFVV6)"
      },
      "encounter": {
        "reference": "Encounter/388b01ba-1d2d-11eb-8abc-0242e805c5c5",
        "type": "Encounter"
      },
      "effectiveDateTime": "2018-01-29T00:00:00+00:00",
      "issued": "2020-11-02T20:02:42.000+00:00",
      "valueCodeableConcept": {
        "coding": [ {
          "code": "5240AAAAAAAAAAAAAAAAAAAAAAAAAAAAAAAA",
          "display": "Lost to followup"
        }, {
          "system": "https://cielterminology.org",
          "code": "5240"
        }, {
          "system": "http://snomed.info/sct/",
          "code": "399307001"
        } ],
        "text": "Lost to followup"
      }
    },
    "request": {
      "method": "PUT",
      "url": "Observation/388b01ba-1d2d-11eb-8abc-0242e805c5c5"
    }
  }, {
    "resource": {
      "resourceType": "Patient",
      "id": "b6bc611f-1d2c-11eb-8abc-0242e805c5c5",
      "meta": {
        "versionId": "1604347144000",
        "lastUpdated": "2020-11-02T19:59:04.000+00:00"
      },
      "identifier": [ {
        "id": "b6cf349e-1d2c-11eb-8abc-0242e805c5c5",
        "extension": [ {
          "url": "http://fhir.openmrs.org/ext/patient/identifier#location",
          "valueReference": {
            "reference": "Location/a92f9952-1c4c-4659-893b-a6b56a16b1df",
            "type": "Location",
            "display": "Ngarua Health Centre"
          }
        } ],
        "use": "official",
        "type": {
          "coding": [ {
            "code": "dfacd928-0370-4315-99d7-6ec1c9f7ae76"
          } ],
          "text": "OpenMRS ID"
        },
        "value": "MGFVW3"
      }, {
        "id": "b6bceb24-1d2c-11eb-8abc-0242e805c5c5",
        "extension": [ {
          "url": "http://fhir.openmrs.org/ext/patient/identifier#location",
          "valueReference": {
            "reference": "Location/a92f9952-1c4c-4659-893b-a6b56a16b1df",
            "type": "Location",
            "display": "Ngarua Health Centre"
          }
        } ],
        "use": "usual",
        "type": {
          "coding": [ {
            "code": "05ee9cf4-7242-4a17-b4d4-00f707265c8a"
          } ],
          "text": "Unique Patient Number"
        },
        "value": "2044373017"
      }, {
        "id": "4a049a63-5673-4559-9b86-11327fe25a69",
        "extension": [ {
          "url": "http://fhir.openmrs.org/ext/patient/identifier#location",
          "valueReference": {
            "reference": "Location/a92f9952-1c4c-4659-893b-a6b56a16b1df",
            "type": "Location",
            "display": "Ngarua Health Centre"
          }
        } ],
        "use": "usual",
        "type": {
          "coding": [ {
            "code": "49af6cdc-7968-4abb-bf46-de10d7f4859f"
          } ],
          "text": "National ID"
        },
        "value": "99976689"
      }, {
        "id": "3985eb2d-27ff-41e3-b7d4-d83c78387766",
        "extension": [ {
          "url": "http://fhir.openmrs.org/ext/patient/identifier#location",
          "valueReference": {
            "reference": "Location/a92f9952-1c4c-4659-893b-a6b56a16b1df",
            "type": "Location",
            "display": "Ngarua Health Centre"
          }
        } ],
        "use": "usual",
        "type": {
          "coding": [ {
            "code": "f85081e2-b4be-4e48-b3a4-7994b69bb101"
          } ],
          "text": "National Unique patient identifier"
        },
        "value": "0000R0Z0G00DY"
      } ],
      "active": true,
      "name": [ {
        "id": "b6bc8892-1d2c-11eb-8abc-0242e805c5c5",
        "family": "Akitoyi",
        "given": [ "Akitoyi", "Akitoyi" ]
      } ],
      "gender": "female",
      "birthDate": "1974-12-06",
      "deceasedBoolean": false,
      "address": [ {
        "id": "13f2cfb7-5e6d-4353-80cc-03c8ba743902",
        "extension": [ {
          "url": "http://fhir.openmrs.org/ext/address",
          "extension": [ {
            "url": "http://fhir.openmrs.org/ext/address#address1",
            "valueString": "330 address1"
          }, {
            "url": "http://fhir.openmrs.org/ext/address#address2",
            "valueString": "Kiambogo primary"
          }, {
            "url": "http://fhir.openmrs.org/ext/address#address4",
            "valueString": "Marmanet"
          }, {
            "url": "http://fhir.openmrs.org/ext/address#address5",
            "valueString": "Thigio"
          }, {
            "url": "http://fhir.openmrs.org/ext/address#address6",
            "valueString": "Gituamba"
          } ]
        } ],
        "use": "home",
        "city": "Kiambogo",
        "district": "Laikipia",
        "state": "Laikipia West"
      } ]
    },
    "request": {
      "method": "PUT",
      "url": "Patient/b6bc611f-1d2c-11eb-8abc-0242e805c5c5"
    }
  }, {
    "resource": {
      "resourceType": "Observation",
      "id": "27f66e3a-76eb-4ac0-9bf5-943d229d9953",
      "meta": {
        "versionId": "1652095737000",
        "lastUpdated": "2022-05-09T11:28:57.000+00:00"
      },
      "status": "final",
      "code": {
        "coding": [ {
          "code": "160540AAAAAAAAAAAAAAAAAAAAAAAAAAAAAA",
          "display": "Method of enrollment"
        }, {
          "system": "http://loinc.org",
          "code": "45252-4"
        }, {
          "system": "https://cielterminology.org",
          "code": "160540"
        } ],
        "text": "Method of enrollment"
      },
      "subject": {
        "reference": "Patient/b6bc611f-1d2c-11eb-8abc-0242e805c5c5",
        "type": "Patient",
        "display": "Akitoyi Akitoyi Akitoyi (OpenMRS ID: MGFVW3)"
      },
      "encounter": {
        "reference": "Encounter/12c188cb-1d2d-11eb-8abc-0242e805c5c5",
        "type": "Encounter"
      },
      "effectiveDateTime": "2008-10-04T00:00:00+00:00",
      "issued": "2022-05-09T11:28:57.000+00:00",
      "valueCodeableConcept": {
        "coding": [ {
          "code": "160542AAAAAAAAAAAAAAAAAAAAAAAAAAAAAA",
          "display": "Outpatient department"
        }, {
          "system": "https://cielterminology.org",
          "code": "160542"
        }, {
          "system": "http://snomed.info/sct/",
          "code": "33022008"
        } ],
        "text": "Outpatient department"
      }
    },
    "request": {
      "method": "PUT",
      "url": "Observation/12c188cb-1d2d-11eb-8abc-0242e805c5c5"
    }
  }, {
    "resource": {
      "resourceType": "Observation",
      "id": "7792d469-1d2e-11eb-8abc-0242e805c5c5",
      "meta": {
        "versionId": "1604347897000",
        "lastUpdated": "2020-11-02T20:11:37.000+00:00"
      },
      "status": "final",
      "code": {
        "coding": [ {
          "code": "1193AAAAAAAAAAAAAAAAAAAAAAAAAAAAAAAA",
          "display": "CURRENT DRUGS USED"
        }, {
          "system": "https://cielterminology.org",
          "code": "1193"
        } ],
        "text": "CURRENT DRUGS USED"
      },
      "subject": {
        "reference": "Patient/b6bc611f-1d2c-11eb-8abc-0242e805c5c5",
        "type": "Patient",
        "display": "Akitoyi Akitoyi Akitoyi (OpenMRS ID: MGFVW3)"
      },
      "encounter": {
        "reference": "Encounter/77929ed8-1d2e-11eb-8abc-0242e805c5c5",
        "type": "Encounter"
      },
      "effectiveDateTime": "2017-11-02T00:00:00+00:00",
      "issued": "2020-11-02T20:11:37.000+00:00",
      "valueCodeableConcept": {
        "coding": [ {
          "code": "1652AAAAAAAAAAAAAAAAAAAAAAAAAAAAAAAA",
          "display": "LAMIVUDINE / NEVIRAPINE / ZIDOVUDINE"
        }, {
          "system": "https://cielterminology.org",
          "code": "1652"
        }, {
          "system": "http://snomed.info/sct/",
          "code": "424990009"
        } ],
        "text": "LAMIVUDINE / NEVIRAPINE / ZIDOVUDINE"
      }
    },
    "request": {
      "method": "PUT",
      "url": "Observation/77929ed8-1d2e-11eb-8abc-0242e805c5c5"
    }
  }, {
    "resource": {
      "resourceType": "Observation",
      "id": "32ae77ad-1d2e-11eb-8abc-0242e805c5c5",
      "meta": {
        "versionId": "1604347782000",
        "lastUpdated": "2020-11-02T20:09:42.000+00:00"
      },
      "status": "final",
      "code": {
        "coding": [ {
          "code": "5096AAAAAAAAAAAAAAAAAAAAAAAAAAAAAAAA",
          "display": "RETURN VISIT DATE"
        }, {
          "system": "https://cielterminology.org",
          "code": "5096"
        } ],
        "text": "RETURN VISIT DATE"
      },
      "subject": {
        "reference": "Patient/b6bc611f-1d2c-11eb-8abc-0242e805c5c5",
        "type": "Patient",
        "display": "Akitoyi Akitoyi Akitoyi (OpenMRS ID: MGFVW3)"
      },
      "encounter": {
        "reference": "Encounter/32ae018f-1d2e-11eb-8abc-0242e805c5c5",
        "type": "Encounter"
      },
      "effectiveDateTime": "2017-11-02T00:00:00+00:00",
      "issued": "2020-11-02T20:09:42.000+00:00",
      "valueDateTime": "2018-01-31T00:00:00+00:00"
    },
    "request": {
      "method": "PUT",
      "url": "Observation/32ae018f-1d2e-11eb-8abc-0242e805c5c5"
    }
  }, {
    "resource": {
      "resourceType": "Observation",
      "id": "32b606f2-1d2e-11eb-8abc-0242e805c5c5",
      "meta": {
        "versionId": "1604347782000",
        "lastUpdated": "2020-11-02T20:09:42.000+00:00"
      },
      "status": "final",
      "code": {
        "coding": [ {
          "code": "5096AAAAAAAAAAAAAAAAAAAAAAAAAAAAAAAA",
          "display": "RETURN VISIT DATE"
        }, {
          "system": "https://cielterminology.org",
          "code": "5096"
        } ],
        "text": "RETURN VISIT DATE"
      },
      "subject": {
        "reference": "Patient/b6bc611f-1d2c-11eb-8abc-0242e805c5c5",
        "type": "Patient",
        "display": "Akitoyi Akitoyi Akitoyi (OpenMRS ID: MGFVW3)"
      },
      "encounter": {
        "reference": "Encounter/32b5a004-1d2e-11eb-8abc-0242e805c5c5",
        "type": "Encounter"
      },
      "effectiveDateTime": "2018-01-17T00:00:00+00:00",
      "issued": "2020-11-02T20:09:42.000+00:00",
      "valueDateTime": "2018-04-18T00:00:00+00:00"
    },
    "request": {
      "method": "PUT",
      "url": "Observation/32b5a004-1d2e-11eb-8abc-0242e805c5c5"
    }
  }, {
    "resource": {
      "resourceType": "Observation",
      "id": "32beb7bd-1d2e-11eb-8abc-0242e805c5c5",
      "meta": {
        "versionId": "1604347782000",
        "lastUpdated": "2020-11-02T20:09:42.000+00:00"
      },
      "status": "final",
      "code": {
        "coding": [ {
          "code": "5096AAAAAAAAAAAAAAAAAAAAAAAAAAAAAAAA",
          "display": "RETURN VISIT DATE"
        }, {
          "system": "https://cielterminology.org",
          "code": "5096"
        } ],
        "text": "RETURN VISIT DATE"
      },
      "subject": {
        "reference": "Patient/b6bc611f-1d2c-11eb-8abc-0242e805c5c5",
        "type": "Patient",
        "display": "Akitoyi Akitoyi Akitoyi (OpenMRS ID: MGFVW3)"
      },
      "encounter": {
        "reference": "Encounter/32be859a-1d2e-11eb-8abc-0242e805c5c5",
        "type": "Encounter"
      },
      "effectiveDateTime": "2018-03-16T00:00:00+00:00",
      "issued": "2020-11-02T20:09:42.000+00:00",
      "valueDateTime": "2018-04-15T00:00:00+00:00"
    },
    "request": {
      "method": "PUT",
      "url": "Observation/32be859a-1d2e-11eb-8abc-0242e805c5c5"
    }
  }, {
    "resource": {
      "resourceType": "Observation",
      "id": "32c57e4c-1d2e-11eb-8abc-0242e805c5c5",
      "meta": {
        "versionId": "1604347782000",
        "lastUpdated": "2020-11-02T20:09:42.000+00:00"
      },
      "status": "final",
      "code": {
        "coding": [ {
          "code": "5096AAAAAAAAAAAAAAAAAAAAAAAAAAAAAAAA",
          "display": "RETURN VISIT DATE"
        }, {
          "system": "https://cielterminology.org",
          "code": "5096"
        } ],
        "text": "RETURN VISIT DATE"
      },
      "subject": {
        "reference": "Patient/b6bc611f-1d2c-11eb-8abc-0242e805c5c5",
        "type": "Patient",
        "display": "Akitoyi Akitoyi Akitoyi (OpenMRS ID: MGFVW3)"
      },
      "encounter": {
        "reference": "Encounter/32c501a0-1d2e-11eb-8abc-0242e805c5c5",
        "type": "Encounter"
      },
      "effectiveDateTime": "2018-05-16T00:00:00+00:00",
      "issued": "2020-11-02T20:09:42.000+00:00",
      "valueDateTime": "2018-06-15T00:00:00+00:00"
    },
    "request": {
      "method": "PUT",
      "url": "Observation/32c501a0-1d2e-11eb-8abc-0242e805c5c5"
    }
  }, {
    "resource": {
      "resourceType": "Observation",
      "id": "32d0d6d0-1d2e-11eb-8abc-0242e805c5c5",
      "meta": {
        "versionId": "1604347782000",
        "lastUpdated": "2020-11-02T20:09:42.000+00:00"
      },
      "status": "final",
      "code": {
        "coding": [ {
          "code": "5096AAAAAAAAAAAAAAAAAAAAAAAAAAAAAAAA",
          "display": "RETURN VISIT DATE"
        }, {
          "system": "https://cielterminology.org",
          "code": "5096"
        } ],
        "text": "RETURN VISIT DATE"
      },
      "subject": {
        "reference": "Patient/b6bc611f-1d2c-11eb-8abc-0242e805c5c5",
        "type": "Patient",
        "display": "Akitoyi Akitoyi Akitoyi (OpenMRS ID: MGFVW3)"
      },
      "encounter": {
        "reference": "Encounter/32d061cc-1d2e-11eb-8abc-0242e805c5c5",
        "type": "Encounter"
      },
      "effectiveDateTime": "2018-06-15T00:00:00+00:00",
      "issued": "2020-11-02T20:09:42.000+00:00",
      "valueDateTime": "2018-07-15T00:00:00+00:00"
    },
    "request": {
      "method": "PUT",
      "url": "Observation/32d061cc-1d2e-11eb-8abc-0242e805c5c5"
    }
  }, {
    "resource": {
      "resourceType": "Observation",
      "id": "32d8a71c-1d2e-11eb-8abc-0242e805c5c5",
      "meta": {
        "versionId": "1604347782000",
        "lastUpdated": "2020-11-02T20:09:42.000+00:00"
      },
      "status": "final",
      "code": {
        "coding": [ {
          "code": "5096AAAAAAAAAAAAAAAAAAAAAAAAAAAAAAAA",
          "display": "RETURN VISIT DATE"
        }, {
          "system": "https://cielterminology.org",
          "code": "5096"
        } ],
        "text": "RETURN VISIT DATE"
      },
      "subject": {
        "reference": "Patient/b6bc611f-1d2c-11eb-8abc-0242e805c5c5",
        "type": "Patient",
        "display": "Akitoyi Akitoyi Akitoyi (OpenMRS ID: MGFVW3)"
      },
      "encounter": {
        "reference": "Encounter/32d82128-1d2e-11eb-8abc-0242e805c5c5",
        "type": "Encounter"
      },
      "effectiveDateTime": "2018-07-13T00:00:00+00:00",
      "issued": "2020-11-02T20:09:42.000+00:00",
      "valueDateTime": "2018-08-14T00:00:00+00:00"
    },
    "request": {
      "method": "PUT",
      "url": "Observation/32d82128-1d2e-11eb-8abc-0242e805c5c5"
    }
  }, {
    "resource": {
      "resourceType": "Observation",
      "id": "32e035d0-1d2e-11eb-8abc-0242e805c5c5",
      "meta": {
        "versionId": "1604347782000",
        "lastUpdated": "2020-11-02T20:09:42.000+00:00"
      },
      "status": "final",
      "code": {
        "coding": [ {
          "code": "5096AAAAAAAAAAAAAAAAAAAAAAAAAAAAAAAA",
          "display": "RETURN VISIT DATE"
        }, {
          "system": "https://cielterminology.org",
          "code": "5096"
        } ],
        "text": "RETURN VISIT DATE"
      },
      "subject": {
        "reference": "Patient/b6bc611f-1d2c-11eb-8abc-0242e805c5c5",
        "type": "Patient",
        "display": "Akitoyi Akitoyi Akitoyi (OpenMRS ID: MGFVW3)"
      },
      "encounter": {
        "reference": "Encounter/32dfb55b-1d2e-11eb-8abc-0242e805c5c5",
        "type": "Encounter"
      },
      "effectiveDateTime": "2018-08-13T00:00:00+00:00",
      "issued": "2020-11-02T20:09:42.000+00:00",
      "valueDateTime": "2018-10-12T00:00:00+00:00"
    },
    "request": {
      "method": "PUT",
      "url": "Observation/32dfb55b-1d2e-11eb-8abc-0242e805c5c5"
    }
  }, {
    "resource": {
      "resourceType": "Observation",
      "id": "32e944e9-1d2e-11eb-8abc-0242e805c5c5",
      "meta": {
        "versionId": "1604347782000",
        "lastUpdated": "2020-11-02T20:09:42.000+00:00"
      },
      "status": "final",
      "code": {
        "coding": [ {
          "code": "5096AAAAAAAAAAAAAAAAAAAAAAAAAAAAAAAA",
          "display": "RETURN VISIT DATE"
        }, {
          "system": "https://cielterminology.org",
          "code": "5096"
        } ],
        "text": "RETURN VISIT DATE"
      },
      "subject": {
        "reference": "Patient/b6bc611f-1d2c-11eb-8abc-0242e805c5c5",
        "type": "Patient",
        "display": "Akitoyi Akitoyi Akitoyi (OpenMRS ID: MGFVW3)"
      },
      "encounter": {
        "reference": "Encounter/32e8c2d8-1d2e-11eb-8abc-0242e805c5c5",
        "type": "Encounter"
      },
      "effectiveDateTime": "2018-08-14T00:00:00+00:00",
      "issued": "2020-11-02T20:09:42.000+00:00",
      "valueDateTime": "2018-10-13T00:00:00+00:00"
    },
    "request": {
      "method": "PUT",
      "url": "Observation/32e8c2d8-1d2e-11eb-8abc-0242e805c5c5"
    }
  }, {
    "resource": {
      "resourceType": "Observation",
      "id": "32f0dedc-1d2e-11eb-8abc-0242e805c5c5",
      "meta": {
        "versionId": "1604347782000",
        "lastUpdated": "2020-11-02T20:09:42.000+00:00"
      },
      "status": "final",
      "code": {
        "coding": [ {
          "code": "5096AAAAAAAAAAAAAAAAAAAAAAAAAAAAAAAA",
          "display": "RETURN VISIT DATE"
        }, {
          "system": "https://cielterminology.org",
          "code": "5096"
        } ],
        "text": "RETURN VISIT DATE"
      },
      "subject": {
        "reference": "Patient/b6bc611f-1d2c-11eb-8abc-0242e805c5c5",
        "type": "Patient",
        "display": "Akitoyi Akitoyi Akitoyi (OpenMRS ID: MGFVW3)"
      },
      "encounter": {
        "reference": "Encounter/32f0584e-1d2e-11eb-8abc-0242e805c5c5",
        "type": "Encounter"
      },
      "effectiveDateTime": "2018-10-10T00:00:00+00:00",
      "issued": "2020-11-02T20:09:42.000+00:00",
      "valueDateTime": "2019-01-10T00:00:00+00:00"
    },
    "request": {
      "method": "PUT",
      "url": "Observation/32f0584e-1d2e-11eb-8abc-0242e805c5c5"
    }
  }, {
    "resource": {
      "resourceType": "Observation",
      "id": "33003486-1d2e-11eb-8abc-0242e805c5c5",
      "meta": {
        "versionId": "1604347782000",
        "lastUpdated": "2020-11-02T20:09:42.000+00:00"
      },
      "status": "final",
      "code": {
        "coding": [ {
          "code": "5096AAAAAAAAAAAAAAAAAAAAAAAAAAAAAAAA",
          "display": "RETURN VISIT DATE"
        }, {
          "system": "https://cielterminology.org",
          "code": "5096"
        } ],
        "text": "RETURN VISIT DATE"
      },
      "subject": {
        "reference": "Patient/b6bc611f-1d2c-11eb-8abc-0242e805c5c5",
        "type": "Patient",
        "display": "Akitoyi Akitoyi Akitoyi (OpenMRS ID: MGFVW3)"
      },
      "encounter": {
        "reference": "Encounter/32ffad31-1d2e-11eb-8abc-0242e805c5c5",
        "type": "Encounter"
      },
      "effectiveDateTime": "2019-03-13T00:00:00+00:00",
      "issued": "2020-11-02T20:09:42.000+00:00",
      "valueDateTime": "2019-09-09T00:00:00+00:00"
    },
    "request": {
      "method": "PUT",
      "url": "Observation/32ffad31-1d2e-11eb-8abc-0242e805c5c5"
    }
  }, {
    "resource": {
      "resourceType": "Observation",
      "id": "330963ac-1d2e-11eb-8abc-0242e805c5c5",
      "meta": {
        "versionId": "1604347782000",
        "lastUpdated": "2020-11-02T20:09:42.000+00:00"
      },
      "status": "final",
      "code": {
        "coding": [ {
          "code": "5096AAAAAAAAAAAAAAAAAAAAAAAAAAAAAAAA",
          "display": "RETURN VISIT DATE"
        }, {
          "system": "https://cielterminology.org",
          "code": "5096"
        } ],
        "text": "RETURN VISIT DATE"
      },
      "subject": {
        "reference": "Patient/b6bc611f-1d2c-11eb-8abc-0242e805c5c5",
        "type": "Patient",
        "display": "Akitoyi Akitoyi Akitoyi (OpenMRS ID: MGFVW3)"
      },
      "encounter": {
        "reference": "Encounter/330879b9-1d2e-11eb-8abc-0242e805c5c5",
        "type": "Encounter"
      },
      "effectiveDateTime": "2020-01-14T00:00:00+00:00",
      "issued": "2020-11-02T20:09:42.000+00:00",
      "valueDateTime": "2020-07-12T00:00:00+00:00"
    },
    "request": {
      "method": "PUT",
      "url": "Observation/330879b9-1d2e-11eb-8abc-0242e805c5c5"
    }
  }, {
    "resource": {
      "resourceType": "Observation",
      "id": "3314df38-1d2e-11eb-8abc-0242e805c5c5",
      "meta": {
        "versionId": "1604347782000",
        "lastUpdated": "2020-11-02T20:09:42.000+00:00"
      },
      "status": "final",
      "code": {
        "coding": [ {
          "code": "5096AAAAAAAAAAAAAAAAAAAAAAAAAAAAAAAA",
          "display": "RETURN VISIT DATE"
        }, {
          "system": "https://cielterminology.org",
          "code": "5096"
        } ],
        "text": "RETURN VISIT DATE"
      },
      "subject": {
        "reference": "Patient/b6bc611f-1d2c-11eb-8abc-0242e805c5c5",
        "type": "Patient",
        "display": "Akitoyi Akitoyi Akitoyi (OpenMRS ID: MGFVW3)"
      },
      "encounter": {
        "reference": "Encounter/3313fbd7-1d2e-11eb-8abc-0242e805c5c5",
        "type": "Encounter"
      },
      "effectiveDateTime": "2020-07-10T00:00:00+00:00",
      "issued": "2020-11-02T20:09:42.000+00:00",
      "valueDateTime": "2020-11-24T00:00:00+00:00"
    },
    "request": {
      "method": "PUT",
      "url": "Observation/3313fbd7-1d2e-11eb-8abc-0242e805c5c5"
    }
  }, {
    "resource": {
      "resourceType": "Observation",
      "id": "1bee5070-6077-4663-9bff-c188e615f890",
      "meta": {
        "versionId": "1605271799000",
        "lastUpdated": "2020-11-13T12:49:59.000+00:00"
      },
      "status": "final",
      "code": {
        "coding": [ {
          "code": "5096AAAAAAAAAAAAAAAAAAAAAAAAAAAAAAAA",
          "display": "RETURN VISIT DATE"
        }, {
          "system": "https://cielterminology.org",
          "code": "5096"
        } ],
        "text": "RETURN VISIT DATE"
      },
      "subject": {
        "reference": "Patient/b6bc611f-1d2c-11eb-8abc-0242e805c5c5",
        "type": "Patient",
        "display": "Akitoyi Akitoyi Akitoyi (OpenMRS ID: MGFVW3)"
      },
      "encounter": {
        "reference": "Encounter/b47e2160-9147-4860-a613-633eb3094094",
        "type": "Encounter"
      },
      "effectiveDateTime": "2020-11-13T12:48:23+00:00",
      "issued": "2020-11-13T12:49:59.000+00:00",
      "valueDateTime": "2021-02-16T00:00:00+00:00"
    },
    "request": {
      "method": "PUT",
      "url": "Observation/b47e2160-9147-4860-a613-633eb3094094"
    }
  }, {
    "resource": {
      "resourceType": "Observation",
      "id": "6776dcfe-5452-4fb4-9294-36f7e7f9d1f4",
      "meta": {
        "versionId": "1614945664000",
        "lastUpdated": "2021-03-05T12:01:04.000+00:00"
      },
      "status": "final",
      "code": {
        "coding": [ {
          "code": "5096AAAAAAAAAAAAAAAAAAAAAAAAAAAAAAAA",
          "display": "RETURN VISIT DATE"
        }, {
          "system": "https://cielterminology.org",
          "code": "5096"
        } ],
        "text": "RETURN VISIT DATE"
      },
      "subject": {
        "reference": "Patient/b6bc611f-1d2c-11eb-8abc-0242e805c5c5",
        "type": "Patient",
        "display": "Akitoyi Akitoyi Akitoyi (OpenMRS ID: MGFVW3)"
      },
      "encounter": {
        "reference": "Encounter/c0602961-0a0f-45a7-8d5c-0810cc6b8c52",
        "type": "Encounter"
      },
      "effectiveDateTime": "2021-02-16T12:00:00+00:00",
      "issued": "2021-03-05T12:01:04.000+00:00",
      "valueDateTime": "2021-07-20T00:00:00+00:00"
    },
    "request": {
      "method": "PUT",
      "url": "Observation/c0602961-0a0f-45a7-8d5c-0810cc6b8c52"
    }
  }, {
    "resource": {
      "resourceType": "Observation",
      "id": "e4f4e25c-16f8-4040-b05d-6f1a77f41de3",
      "meta": {
        "versionId": "1626781444000",
        "lastUpdated": "2021-07-20T11:44:04.000+00:00"
      },
      "status": "final",
      "code": {
        "coding": [ {
          "code": "5096AAAAAAAAAAAAAAAAAAAAAAAAAAAAAAAA",
          "display": "RETURN VISIT DATE"
        }, {
          "system": "https://cielterminology.org",
          "code": "5096"
        } ],
        "text": "RETURN VISIT DATE"
      },
      "subject": {
        "reference": "Patient/b6bc611f-1d2c-11eb-8abc-0242e805c5c5",
        "type": "Patient",
        "display": "Akitoyi Akitoyi Akitoyi (OpenMRS ID: MGFVW3)"
      },
      "encounter": {
        "reference": "Encounter/6709ec44-f8db-4ef3-b935-a50a84e05a47",
        "type": "Encounter"
      },
      "effectiveDateTime": "2021-07-20T11:42:37+00:00",
      "issued": "2021-07-20T11:44:04.000+00:00",
      "valueDateTime": "2021-11-16T00:00:00+00:00"
    },
    "request": {
      "method": "PUT",
      "url": "Observation/6709ec44-f8db-4ef3-b935-a50a84e05a47"
    }
  }, {
    "resource": {
      "resourceType": "Observation",
      "id": "8aac39c5-de92-4426-ab04-b4f3f268d514",
      "meta": {
        "versionId": "1637659685000",
        "lastUpdated": "2021-11-23T09:28:05.000+00:00"
      },
      "status": "final",
      "code": {
        "coding": [ {
          "code": "5096AAAAAAAAAAAAAAAAAAAAAAAAAAAAAAAA",
          "display": "RETURN VISIT DATE"
        }, {
          "system": "https://cielterminology.org",
          "code": "5096"
        } ],
        "text": "RETURN VISIT DATE"
      },
      "subject": {
        "reference": "Patient/b6bc611f-1d2c-11eb-8abc-0242e805c5c5",
        "type": "Patient",
        "display": "Akitoyi Akitoyi Akitoyi (OpenMRS ID: MGFVW3)"
      },
      "encounter": {
        "reference": "Encounter/febff30f-9238-43ba-8fee-6e4af6e14dc0",
        "type": "Encounter"
      },
      "effectiveDateTime": "2021-11-23T09:27:30+00:00",
      "issued": "2021-11-23T09:28:05.000+00:00",
      "valueDateTime": "2022-02-22T00:00:00+00:00"
    },
    "request": {
      "method": "PUT",
      "url": "Observation/febff30f-9238-43ba-8fee-6e4af6e14dc0"
    }
  }, {
    "resource": {
      "resourceType": "Observation",
      "id": "dc93abaa-945c-4985-8714-ce2a0b026d95",
      "meta": {
        "versionId": "1645277561000",
        "lastUpdated": "2022-02-19T13:32:41.000+00:00"
      },
      "status": "final",
      "code": {
        "coding": [ {
          "code": "5096AAAAAAAAAAAAAAAAAAAAAAAAAAAAAAAA",
          "display": "RETURN VISIT DATE"
        }, {
          "system": "https://cielterminology.org",
          "code": "5096"
        } ],
        "text": "RETURN VISIT DATE"
      },
      "subject": {
        "reference": "Patient/b6bc611f-1d2c-11eb-8abc-0242e805c5c5",
        "type": "Patient",
        "display": "Akitoyi Akitoyi Akitoyi (OpenMRS ID: MGFVW3)"
      },
      "encounter": {
        "reference": "Encounter/db372c5b-3174-4b16-abb1-c2883c7fc993",
        "type": "Encounter"
      },
      "effectiveDateTime": "2022-02-19T13:31:41+00:00",
      "issued": "2022-02-19T13:32:41.000+00:00",
      "valueDateTime": "2022-06-16T00:00:00+00:00"
    },
    "request": {
      "method": "PUT",
      "url": "Observation/db372c5b-3174-4b16-abb1-c2883c7fc993"
    }
  }, {
    "resource": {
      "resourceType": "Observation",
      "id": "82252b47-df1e-40e9-8207-8e91563beb25",
      "meta": {
        "versionId": "1655393657000",
        "lastUpdated": "2022-06-16T15:34:17.000+00:00"
      },
      "status": "final",
      "code": {
        "coding": [ {
          "code": "5096AAAAAAAAAAAAAAAAAAAAAAAAAAAAAAAA",
          "display": "RETURN VISIT DATE"
        }, {
          "system": "https://cielterminology.org",
          "code": "5096"
        } ],
        "text": "RETURN VISIT DATE"
      },
      "subject": {
        "reference": "Patient/b6bc611f-1d2c-11eb-8abc-0242e805c5c5",
        "type": "Patient",
        "display": "Akitoyi Akitoyi Akitoyi (OpenMRS ID: MGFVW3)"
      },
      "encounter": {
        "reference": "Encounter/328c1051-ca18-4336-ac88-057bdc37f0ba",
        "type": "Encounter"
      },
      "effectiveDateTime": "2022-06-16T15:32:55+00:00",
      "issued": "2022-06-16T15:34:17.000+00:00",
      "valueDateTime": "2023-01-17T00:00:00+00:00"
    },
    "request": {
      "method": "PUT",
      "url": "Observation/328c1051-ca18-4336-ac88-057bdc37f0ba"
    }
  }, {
    "resource": {
      "resourceType": "Observation",
      "id": "2713aff0-db6b-4a73-a4c3-dd99091d2073",
      "meta": {
        "versionId": "1674042721000",
        "lastUpdated": "2023-01-18T11:52:01.000+00:00"
      },
      "status": "final",
      "code": {
        "coding": [ {
          "code": "5096AAAAAAAAAAAAAAAAAAAAAAAAAAAAAAAA",
          "display": "RETURN VISIT DATE"
        }, {
          "system": "https://cielterminology.org",
          "code": "5096"
        } ],
        "text": "RETURN VISIT DATE"
      },
      "subject": {
        "reference": "Patient/b6bc611f-1d2c-11eb-8abc-0242e805c5c5",
        "type": "Patient",
        "display": "Akitoyi Akitoyi Akitoyi (OpenMRS ID: MGFVW3)"
      },
      "encounter": {
        "reference": "Encounter/dd0562e6-303f-4288-bdaf-ceeb4096e09a",
        "type": "Encounter"
      },
      "effectiveDateTime": "2023-01-18T11:47:29+00:00",
      "issued": "2023-01-18T11:52:01.000+00:00",
      "valueDateTime": "2023-07-19T00:00:00+00:00"
    },
    "request": {
      "method": "PUT",
      "url": "Observation/dd0562e6-303f-4288-bdaf-ceeb4096e09a"
    }
  }, {
    "resource": {
      "resourceType": "Observation",
      "id": "d047f25a-d8cd-4e8b-9e52-dc308fdad340",
      "meta": {
        "versionId": "1689769312000",
        "lastUpdated": "2023-07-19T12:21:52.000+00:00"
      },
      "status": "final",
      "code": {
        "coding": [ {
          "code": "5096AAAAAAAAAAAAAAAAAAAAAAAAAAAAAAAA",
          "display": "RETURN VISIT DATE"
        }, {
          "system": "https://cielterminology.org",
          "code": "5096"
        } ],
        "text": "RETURN VISIT DATE"
      },
      "subject": {
        "reference": "Patient/b6bc611f-1d2c-11eb-8abc-0242e805c5c5",
        "type": "Patient",
        "display": "Akitoyi Akitoyi Akitoyi (OpenMRS ID: MGFVW3)"
      },
      "encounter": {
        "reference": "Encounter/c3c9d8b3-fd78-4879-8f01-3c9d112c5b51",
        "type": "Encounter"
      },
      "effectiveDateTime": "2023-07-19T12:19:58+00:00",
      "issued": "2023-07-19T12:21:52.000+00:00",
      "valueDateTime": "2024-01-17T00:00:00+00:00"
    },
    "request": {
      "method": "PUT",
      "url": "Observation/c3c9d8b3-fd78-4879-8f01-3c9d112c5b51"
    }
  }, {
    "resource": {
      "resourceType": "Patient",
      "id": "b6cf5a65-1d2c-11eb-8abc-0242e805c5c5",
      "meta": {
        "versionId": "1604347144000",
        "lastUpdated": "2020-11-02T19:59:04.000+00:00"
      },
      "identifier": [ {
        "id": "b6dd1f2a-1d2c-11eb-8abc-0242e805c5c5",
        "extension": [ {
          "url": "http://fhir.openmrs.org/ext/patient/identifier#location",
          "valueReference": {
            "reference": "Location/a92f9952-1c4c-4659-893b-a6b56a16b1df",
            "type": "Location",
            "display": "Ngarua Health Centre"
          }
        } ],
        "use": "official",
        "type": {
          "coding": [ {
            "code": "dfacd928-0370-4315-99d7-6ec1c9f7ae76"
          } ],
          "text": "OpenMRS ID"
        },
        "value": "MGFVXX"
      }, {
        "id": "b6cfb7e9-1d2c-11eb-8abc-0242e805c5c5",
        "extension": [ {
          "url": "http://fhir.openmrs.org/ext/patient/identifier#location",
          "valueReference": {
            "reference": "Location/a92f9952-1c4c-4659-893b-a6b56a16b1df",
            "type": "Location",
            "display": "Ngarua Health Centre"
          }
        } ],
        "use": "usual",
        "type": {
          "coding": [ {
            "code": "05ee9cf4-7242-4a17-b4d4-00f707265c8a"
          } ],
          "text": "Unique Patient Number"
        },
        "value": "1050213026"
      }, {
        "id": "b3fc47d7-4d6d-493f-a980-1d2bcaf3b44f",
        "extension": [ {
          "url": "http://fhir.openmrs.org/ext/patient/identifier#location",
          "valueReference": {
            "reference": "Location/a92f9952-1c4c-4659-893b-a6b56a16b1df",
            "type": "Location",
            "display": "Ngarua Health Centre"
          }
        } ],
        "use": "usual",
        "type": {
          "coding": [ {
            "code": "49af6cdc-7968-4abb-bf46-de10d7f4859f"
          } ],
          "text": "National ID"
        },
        "value": "89899898"
      }, {
        "id": "a617e33d-b3fc-4a0d-9077-b8eca46b17c7",
        "extension": [ {
          "url": "http://fhir.openmrs.org/ext/patient/identifier#location",
          "valueReference": {
            "reference": "Location/a92f9952-1c4c-4659-893b-a6b56a16b1df",
            "type": "Location",
            "display": "Ngarua Health Centre"
          }
        } ],
        "use": "usual",
        "type": {
          "coding": [ {
            "code": "f85081e2-b4be-4e48-b3a4-7994b69bb101"
          } ],
          "text": "National Unique patient identifier"
        },
        "value": "0000007070000"
      } ],
      "active": true,
      "name": [ {
        "id": "b6cf761a-1d2c-11eb-8abc-0242e805c5c5",
        "family": "arot",
        "given": [ "arot", "arot" ]
      } ],
      "gender": "female",
      "birthDate": "1981-06-15",
      "deceasedBoolean": false,
      "address": [ {
        "id": "dbe11750-d1bf-4c5f-9879-9ba89b944ab2",
        "extension": [ {
          "url": "http://fhir.openmrs.org/ext/address",
          "extension": [ {
            "url": "http://fhir.openmrs.org/ext/address#address1",
            "valueString": "331 address1"
          }, {
            "url": "http://fhir.openmrs.org/ext/address#address4",
            "valueString": "Marmanet"
          }, {
            "url": "http://fhir.openmrs.org/ext/address#address5",
            "valueString": "Muthengera"
          }, {
            "url": "http://fhir.openmrs.org/ext/address#address6",
            "valueString": "Gituamba"
          } ]
        } ],
        "use": "home",
        "city": "karandi",
        "district": "Laikipia",
        "state": "Laikipia West"
      } ]
    },
    "request": {
      "method": "PUT",
      "url": "Patient/b6cf5a65-1d2c-11eb-8abc-0242e805c5c5"
    }
  }, {
    "resource": {
      "resourceType": "Observation",
      "id": "7d557923-5f37-4b22-bfab-416bdc809b3b",
      "meta": {
        "versionId": "1652271223000",
        "lastUpdated": "2022-05-11T12:13:43.000+00:00"
      },
      "status": "final",
      "code": {
        "coding": [ {
          "code": "160540AAAAAAAAAAAAAAAAAAAAAAAAAAAAAA",
          "display": "Method of enrollment"
        }, {
          "system": "http://loinc.org",
          "code": "45252-4"
        }, {
          "system": "https://cielterminology.org",
          "code": "160540"
        } ],
        "text": "Method of enrollment"
      },
      "subject": {
        "reference": "Patient/b6cf5a65-1d2c-11eb-8abc-0242e805c5c5",
        "type": "Patient",
        "display": "arot arot arot (OpenMRS ID: MGFVXX)"
      },
      "encounter": {
        "reference": "Encounter/12c90aee-1d2d-11eb-8abc-0242e805c5c5",
        "type": "Encounter"
      },
      "effectiveDateTime": "2010-06-16T00:00:00+00:00",
      "issued": "2022-05-11T12:13:43.000+00:00",
      "valueCodeableConcept": {
        "coding": [ {
          "code": "160542AAAAAAAAAAAAAAAAAAAAAAAAAAAAAA",
          "display": "Outpatient department"
        }, {
          "system": "https://cielterminology.org",
          "code": "160542"
        }, {
          "system": "http://snomed.info/sct/",
          "code": "33022008"
        } ],
        "text": "Outpatient department"
      }
    },
    "request": {
      "method": "PUT",
      "url": "Observation/12c90aee-1d2d-11eb-8abc-0242e805c5c5"
    }
  }, {
    "resource": {
      "resourceType": "Observation",
      "id": "77b044c0-1d2e-11eb-8abc-0242e805c5c5",
      "meta": {
        "versionId": "1604347897000",
        "lastUpdated": "2020-11-02T20:11:37.000+00:00"
      },
      "status": "final",
      "code": {
        "coding": [ {
          "code": "1193AAAAAAAAAAAAAAAAAAAAAAAAAAAAAAAA",
          "display": "CURRENT DRUGS USED"
        }, {
          "system": "https://cielterminology.org",
          "code": "1193"
        } ],
        "text": "CURRENT DRUGS USED"
      },
      "subject": {
        "reference": "Patient/b6cf5a65-1d2c-11eb-8abc-0242e805c5c5",
        "type": "Patient",
        "display": "arot arot arot (OpenMRS ID: MGFVXX)"
      },
      "encounter": {
        "reference": "Encounter/77b009bd-1d2e-11eb-8abc-0242e805c5c5",
        "type": "Encounter"
      },
      "effectiveDateTime": "2017-11-02T00:00:00+00:00",
      "issued": "2020-11-02T20:11:37.000+00:00",
      "valueCodeableConcept": {
        "coding": [ {
          "code": "160124AAAAAAAAAAAAAAAAAAAAAAAAAAAAAA",
          "display": "Zidovudine / Lamivudine / Efavirenz"
        }, {
          "system": "https://cielterminology.org",
          "code": "160124"
        } ],
        "text": "Zidovudine / Lamivudine / Efavirenz"
      }
    },
    "request": {
      "method": "PUT",
      "url": "Observation/77b009bd-1d2e-11eb-8abc-0242e805c5c5"
    }
  }, {
    "resource": {
      "resourceType": "Observation",
      "id": "331c16c8-1d2e-11eb-8abc-0242e805c5c5",
      "meta": {
        "versionId": "1604347782000",
        "lastUpdated": "2020-11-02T20:09:42.000+00:00"
      },
      "status": "final",
      "code": {
        "coding": [ {
          "code": "5096AAAAAAAAAAAAAAAAAAAAAAAAAAAAAAAA",
          "display": "RETURN VISIT DATE"
        }, {
          "system": "https://cielterminology.org",
          "code": "5096"
        } ],
        "text": "RETURN VISIT DATE"
      },
      "subject": {
        "reference": "Patient/b6cf5a65-1d2c-11eb-8abc-0242e805c5c5",
        "type": "Patient",
        "display": "arot arot arot (OpenMRS ID: MGFVXX)"
      },
      "encounter": {
        "reference": "Encounter/331b8ff9-1d2e-11eb-8abc-0242e805c5c5",
        "type": "Encounter"
      },
      "effectiveDateTime": "2017-11-02T00:00:00+00:00",
      "issued": "2020-11-02T20:09:42.000+00:00",
      "valueDateTime": "2018-01-31T00:00:00+00:00"
    },
    "request": {
      "method": "PUT",
      "url": "Observation/331b8ff9-1d2e-11eb-8abc-0242e805c5c5"
    }
  }, {
    "resource": {
      "resourceType": "Observation",
      "id": "332cb575-1d2e-11eb-8abc-0242e805c5c5",
      "meta": {
        "versionId": "1604347782000",
        "lastUpdated": "2020-11-02T20:09:42.000+00:00"
      },
      "status": "final",
      "code": {
        "coding": [ {
          "code": "5096AAAAAAAAAAAAAAAAAAAAAAAAAAAAAAAA",
          "display": "RETURN VISIT DATE"
        }, {
          "system": "https://cielterminology.org",
          "code": "5096"
        } ],
        "text": "RETURN VISIT DATE"
      },
      "subject": {
        "reference": "Patient/b6cf5a65-1d2c-11eb-8abc-0242e805c5c5",
        "type": "Patient",
        "display": "arot arot arot (OpenMRS ID: MGFVXX)"
      },
      "encounter": {
        "reference": "Encounter/332c2e4d-1d2e-11eb-8abc-0242e805c5c5",
        "type": "Encounter"
      },
      "effectiveDateTime": "2018-03-20T00:00:00+00:00",
      "issued": "2020-11-02T20:09:42.000+00:00",
      "valueDateTime": "2018-04-20T00:00:00+00:00"
    },
    "request": {
      "method": "PUT",
      "url": "Observation/332c2e4d-1d2e-11eb-8abc-0242e805c5c5"
    }
  }, {
    "resource": {
      "resourceType": "Observation",
      "id": "33344816-1d2e-11eb-8abc-0242e805c5c5",
      "meta": {
        "versionId": "1604347782000",
        "lastUpdated": "2020-11-02T20:09:42.000+00:00"
      },
      "status": "final",
      "code": {
        "coding": [ {
          "code": "5096AAAAAAAAAAAAAAAAAAAAAAAAAAAAAAAA",
          "display": "RETURN VISIT DATE"
        }, {
          "system": "https://cielterminology.org",
          "code": "5096"
        } ],
        "text": "RETURN VISIT DATE"
      },
      "subject": {
        "reference": "Patient/b6cf5a65-1d2c-11eb-8abc-0242e805c5c5",
        "type": "Patient",
        "display": "arot arot arot (OpenMRS ID: MGFVXX)"
      },
      "encounter": {
        "reference": "Encounter/3333c952-1d2e-11eb-8abc-0242e805c5c5",
        "type": "Encounter"
      },
      "effectiveDateTime": "2018-04-03T00:00:00+00:00",
      "issued": "2020-11-02T20:09:42.000+00:00",
      "valueDateTime": "2018-05-03T00:00:00+00:00"
    },
    "request": {
      "method": "PUT",
      "url": "Observation/3333c952-1d2e-11eb-8abc-0242e805c5c5"
    }
  }, {
    "resource": {
      "resourceType": "Observation",
      "id": "333e7248-1d2e-11eb-8abc-0242e805c5c5",
      "meta": {
        "versionId": "1604347783000",
        "lastUpdated": "2020-11-02T20:09:43.000+00:00"
      },
      "status": "final",
      "code": {
        "coding": [ {
          "code": "5096AAAAAAAAAAAAAAAAAAAAAAAAAAAAAAAA",
          "display": "RETURN VISIT DATE"
        }, {
          "system": "https://cielterminology.org",
          "code": "5096"
        } ],
        "text": "RETURN VISIT DATE"
      },
      "subject": {
        "reference": "Patient/b6cf5a65-1d2c-11eb-8abc-0242e805c5c5",
        "type": "Patient",
        "display": "arot arot arot (OpenMRS ID: MGFVXX)"
      },
      "encounter": {
        "reference": "Encounter/333df454-1d2e-11eb-8abc-0242e805c5c5",
        "type": "Encounter"
      },
      "effectiveDateTime": "2018-04-25T00:00:00+00:00",
      "issued": "2020-11-02T20:09:43.000+00:00",
      "valueDateTime": "2018-05-09T00:00:00+00:00"
    },
    "request": {
      "method": "PUT",
      "url": "Observation/333df454-1d2e-11eb-8abc-0242e805c5c5"
    }
  }, {
    "resource": {
      "resourceType": "Observation",
      "id": "334614ed-1d2e-11eb-8abc-0242e805c5c5",
      "meta": {
        "versionId": "1604347783000",
        "lastUpdated": "2020-11-02T20:09:43.000+00:00"
      },
      "status": "final",
      "code": {
        "coding": [ {
          "code": "5096AAAAAAAAAAAAAAAAAAAAAAAAAAAAAAAA",
          "display": "RETURN VISIT DATE"
        }, {
          "system": "https://cielterminology.org",
          "code": "5096"
        } ],
        "text": "RETURN VISIT DATE"
      },
      "subject": {
        "reference": "Patient/b6cf5a65-1d2c-11eb-8abc-0242e805c5c5",
        "type": "Patient",
        "display": "arot arot arot (OpenMRS ID: MGFVXX)"
      },
      "encounter": {
        "reference": "Encounter/334596fa-1d2e-11eb-8abc-0242e805c5c5",
        "type": "Encounter"
      },
      "effectiveDateTime": "2018-05-14T00:00:00+00:00",
      "issued": "2020-11-02T20:09:43.000+00:00",
      "valueDateTime": "2018-05-23T00:00:00+00:00"
    },
    "request": {
      "method": "PUT",
      "url": "Observation/334596fa-1d2e-11eb-8abc-0242e805c5c5"
    }
  }, {
    "resource": {
      "resourceType": "Observation",
      "id": "33502c85-1d2e-11eb-8abc-0242e805c5c5",
      "meta": {
        "versionId": "1604347783000",
        "lastUpdated": "2020-11-02T20:09:43.000+00:00"
      },
      "status": "final",
      "code": {
        "coding": [ {
          "code": "5096AAAAAAAAAAAAAAAAAAAAAAAAAAAAAAAA",
          "display": "RETURN VISIT DATE"
        }, {
          "system": "https://cielterminology.org",
          "code": "5096"
        } ],
        "text": "RETURN VISIT DATE"
      },
      "subject": {
        "reference": "Patient/b6cf5a65-1d2c-11eb-8abc-0242e805c5c5",
        "type": "Patient",
        "display": "arot arot arot (OpenMRS ID: MGFVXX)"
      },
      "encounter": {
        "reference": "Encounter/334fb646-1d2e-11eb-8abc-0242e805c5c5",
        "type": "Encounter"
      },
      "effectiveDateTime": "2018-05-22T00:00:00+00:00",
      "issued": "2020-11-02T20:09:43.000+00:00",
      "valueDateTime": "2018-06-22T00:00:00+00:00"
    },
    "request": {
      "method": "PUT",
      "url": "Observation/334fb646-1d2e-11eb-8abc-0242e805c5c5"
    }
  }, {
    "resource": {
      "resourceType": "Observation",
      "id": "3357dc98-1d2e-11eb-8abc-0242e805c5c5",
      "meta": {
        "versionId": "1604347783000",
        "lastUpdated": "2020-11-02T20:09:43.000+00:00"
      },
      "status": "final",
      "code": {
        "coding": [ {
          "code": "5096AAAAAAAAAAAAAAAAAAAAAAAAAAAAAAAA",
          "display": "RETURN VISIT DATE"
        }, {
          "system": "https://cielterminology.org",
          "code": "5096"
        } ],
        "text": "RETURN VISIT DATE"
      },
      "subject": {
        "reference": "Patient/b6cf5a65-1d2c-11eb-8abc-0242e805c5c5",
        "type": "Patient",
        "display": "arot arot arot (OpenMRS ID: MGFVXX)"
      },
      "encounter": {
        "reference": "Encounter/3357648d-1d2e-11eb-8abc-0242e805c5c5",
        "type": "Encounter"
      },
      "effectiveDateTime": "2018-06-22T00:00:00+00:00",
      "issued": "2020-11-02T20:09:43.000+00:00",
      "valueDateTime": "2018-08-14T00:00:00+00:00"
    },
    "request": {
      "method": "PUT",
      "url": "Observation/3357648d-1d2e-11eb-8abc-0242e805c5c5"
    }
  }, {
    "resource": {
      "resourceType": "Observation",
      "id": "33637905-1d2e-11eb-8abc-0242e805c5c5",
      "meta": {
        "versionId": "1604347783000",
        "lastUpdated": "2020-11-02T20:09:43.000+00:00"
      },
      "status": "final",
      "code": {
        "coding": [ {
          "code": "5096AAAAAAAAAAAAAAAAAAAAAAAAAAAAAAAA",
          "display": "RETURN VISIT DATE"
        }, {
          "system": "https://cielterminology.org",
          "code": "5096"
        } ],
        "text": "RETURN VISIT DATE"
      },
      "subject": {
        "reference": "Patient/b6cf5a65-1d2c-11eb-8abc-0242e805c5c5",
        "type": "Patient",
        "display": "arot arot arot (OpenMRS ID: MGFVXX)"
      },
      "encounter": {
        "reference": "Encounter/3362f292-1d2e-11eb-8abc-0242e805c5c5",
        "type": "Encounter"
      },
      "effectiveDateTime": "2018-08-14T00:00:00+00:00",
      "issued": "2020-11-02T20:09:43.000+00:00",
      "valueDateTime": "2018-11-13T00:00:00+00:00"
    },
    "request": {
      "method": "PUT",
      "url": "Observation/3362f292-1d2e-11eb-8abc-0242e805c5c5"
    }
  }, {
    "resource": {
      "resourceType": "Observation",
      "id": "336b1a3d-1d2e-11eb-8abc-0242e805c5c5",
      "meta": {
        "versionId": "1604347783000",
        "lastUpdated": "2020-11-02T20:09:43.000+00:00"
      },
      "status": "final",
      "code": {
        "coding": [ {
          "code": "5096AAAAAAAAAAAAAAAAAAAAAAAAAAAAAAAA",
          "display": "RETURN VISIT DATE"
        }, {
          "system": "https://cielterminology.org",
          "code": "5096"
        } ],
        "text": "RETURN VISIT DATE"
      },
      "subject": {
        "reference": "Patient/b6cf5a65-1d2c-11eb-8abc-0242e805c5c5",
        "type": "Patient",
        "display": "arot arot arot (OpenMRS ID: MGFVXX)"
      },
      "encounter": {
        "reference": "Encounter/336a9446-1d2e-11eb-8abc-0242e805c5c5",
        "type": "Encounter"
      },
      "effectiveDateTime": "2019-02-12T00:00:00+00:00",
      "issued": "2020-11-02T20:09:43.000+00:00",
      "valueDateTime": "2019-08-13T00:00:00+00:00"
    },
    "request": {
      "method": "PUT",
      "url": "Observation/336a9446-1d2e-11eb-8abc-0242e805c5c5"
    }
  }, {
    "resource": {
      "resourceType": "Observation",
      "id": "3372791c-1d2e-11eb-8abc-0242e805c5c5",
      "meta": {
        "versionId": "1604347783000",
        "lastUpdated": "2020-11-02T20:09:43.000+00:00"
      },
      "status": "final",
      "code": {
        "coding": [ {
          "code": "5096AAAAAAAAAAAAAAAAAAAAAAAAAAAAAAAA",
          "display": "RETURN VISIT DATE"
        }, {
          "system": "https://cielterminology.org",
          "code": "5096"
        } ],
        "text": "RETURN VISIT DATE"
      },
      "subject": {
        "reference": "Patient/b6cf5a65-1d2c-11eb-8abc-0242e805c5c5",
        "type": "Patient",
        "display": "arot arot arot (OpenMRS ID: MGFVXX)"
      },
      "encounter": {
        "reference": "Encounter/33723f88-1d2e-11eb-8abc-0242e805c5c5",
        "type": "Encounter"
      },
      "effectiveDateTime": "2019-05-15T00:00:00+00:00",
      "issued": "2020-11-02T20:09:43.000+00:00",
      "valueDateTime": "2019-08-13T00:00:00+00:00"
    },
    "request": {
      "method": "PUT",
      "url": "Observation/33723f88-1d2e-11eb-8abc-0242e805c5c5"
    }
  }, {
    "resource": {
      "resourceType": "Observation",
      "id": "337d40a6-1d2e-11eb-8abc-0242e805c5c5",
      "meta": {
        "versionId": "1604347783000",
        "lastUpdated": "2020-11-02T20:09:43.000+00:00"
      },
      "status": "final",
      "code": {
        "coding": [ {
          "code": "5096AAAAAAAAAAAAAAAAAAAAAAAAAAAAAAAA",
          "display": "RETURN VISIT DATE"
        }, {
          "system": "https://cielterminology.org",
          "code": "5096"
        } ],
        "text": "RETURN VISIT DATE"
      },
      "subject": {
        "reference": "Patient/b6cf5a65-1d2c-11eb-8abc-0242e805c5c5",
        "type": "Patient",
        "display": "arot arot arot (OpenMRS ID: MGFVXX)"
      },
      "encounter": {
        "reference": "Encounter/337c62d9-1d2e-11eb-8abc-0242e805c5c5",
        "type": "Encounter"
      },
      "effectiveDateTime": "2020-01-13T00:00:00+00:00",
      "issued": "2020-11-02T20:09:43.000+00:00",
      "valueDateTime": "2020-07-11T00:00:00+00:00"
    },
    "request": {
      "method": "PUT",
      "url": "Observation/337c62d9-1d2e-11eb-8abc-0242e805c5c5"
    }
  }, {
    "resource": {
      "resourceType": "Observation",
      "id": "33848820-1d2e-11eb-8abc-0242e805c5c5",
      "meta": {
        "versionId": "1604347783000",
        "lastUpdated": "2020-11-02T20:09:43.000+00:00"
      },
      "status": "final",
      "code": {
        "coding": [ {
          "code": "5096AAAAAAAAAAAAAAAAAAAAAAAAAAAAAAAA",
          "display": "RETURN VISIT DATE"
        }, {
          "system": "https://cielterminology.org",
          "code": "5096"
        } ],
        "text": "RETURN VISIT DATE"
      },
      "subject": {
        "reference": "Patient/b6cf5a65-1d2c-11eb-8abc-0242e805c5c5",
        "type": "Patient",
        "display": "arot arot arot (OpenMRS ID: MGFVXX)"
      },
      "encounter": {
        "reference": "Encounter/3383e0cf-1d2e-11eb-8abc-0242e805c5c5",
        "type": "Encounter"
      },
      "effectiveDateTime": "2020-07-15T00:00:00+00:00",
      "issued": "2020-11-02T20:09:43.000+00:00",
      "valueDateTime": "2020-11-10T00:00:00+00:00"
    },
    "request": {
      "method": "PUT",
      "url": "Observation/3383e0cf-1d2e-11eb-8abc-0242e805c5c5"
    }
  }, {
    "resource": {
      "resourceType": "Observation",
      "id": "ba9374ea-a60d-45e5-b0ed-5e5ac6d9f5a5",
      "meta": {
        "versionId": "1605175190000",
        "lastUpdated": "2020-11-12T09:59:50.000+00:00"
      },
      "status": "final",
      "code": {
        "coding": [ {
          "code": "5096AAAAAAAAAAAAAAAAAAAAAAAAAAAAAAAA",
          "display": "RETURN VISIT DATE"
        }, {
          "system": "https://cielterminology.org",
          "code": "5096"
        } ],
        "text": "RETURN VISIT DATE"
      },
      "subject": {
        "reference": "Patient/b6cf5a65-1d2c-11eb-8abc-0242e805c5c5",
        "type": "Patient",
        "display": "arot arot arot (OpenMRS ID: MGFVXX)"
      },
      "encounter": {
        "reference": "Encounter/520b1d68-0564-4793-bb9d-b9faf81114a7",
        "type": "Encounter"
      },
      "effectiveDateTime": "2020-11-12T09:57:44+00:00",
      "issued": "2020-11-12T09:59:50.000+00:00",
      "valueDateTime": "2021-01-07T00:00:00+00:00"
    },
    "request": {
      "method": "PUT",
      "url": "Observation/520b1d68-0564-4793-bb9d-b9faf81114a7"
    }
  }, {
    "resource": {
      "resourceType": "Observation",
      "id": "e1aaae68-9170-4b19-b4f2-8f6cdec9ae12",
      "meta": {
        "versionId": "1610019870000",
        "lastUpdated": "2021-01-07T11:44:30.000+00:00"
      },
      "status": "final",
      "code": {
        "coding": [ {
          "code": "5096AAAAAAAAAAAAAAAAAAAAAAAAAAAAAAAA",
          "display": "RETURN VISIT DATE"
        }, {
          "system": "https://cielterminology.org",
          "code": "5096"
        } ],
        "text": "RETURN VISIT DATE"
      },
      "subject": {
        "reference": "Patient/b6cf5a65-1d2c-11eb-8abc-0242e805c5c5",
        "type": "Patient",
        "display": "arot arot arot (OpenMRS ID: MGFVXX)"
      },
      "encounter": {
        "reference": "Encounter/62463981-39da-4e8c-a37f-0969b1df341a",
        "type": "Encounter"
      },
      "effectiveDateTime": "2021-01-07T11:43:19+00:00",
      "issued": "2021-01-07T11:44:30.000+00:00",
      "valueDateTime": "2021-02-12T00:00:00+00:00"
    },
    "request": {
      "method": "PUT",
      "url": "Observation/62463981-39da-4e8c-a37f-0969b1df341a"
    }
  }, {
    "resource": {
      "resourceType": "Observation",
      "id": "a2dcab2f-fc22-4c29-b275-978ff93ae958",
      "meta": {
        "versionId": "1613140345000",
        "lastUpdated": "2021-02-12T14:32:25.000+00:00"
      },
      "status": "final",
      "code": {
        "coding": [ {
          "code": "5096AAAAAAAAAAAAAAAAAAAAAAAAAAAAAAAA",
          "display": "RETURN VISIT DATE"
        }, {
          "system": "https://cielterminology.org",
          "code": "5096"
        } ],
        "text": "RETURN VISIT DATE"
      },
      "subject": {
        "reference": "Patient/b6cf5a65-1d2c-11eb-8abc-0242e805c5c5",
        "type": "Patient",
        "display": "arot arot arot (OpenMRS ID: MGFVXX)"
      },
      "encounter": {
        "reference": "Encounter/38053b96-9b2e-46a2-90ca-f8cdd8e8290a",
        "type": "Encounter"
      },
      "effectiveDateTime": "2021-02-12T14:31:09+00:00",
      "issued": "2021-02-12T14:32:25.000+00:00",
      "valueDateTime": "2021-03-31T00:00:00+00:00"
    },
    "request": {
      "method": "PUT",
      "url": "Observation/38053b96-9b2e-46a2-90ca-f8cdd8e8290a"
    }
  }, {
    "resource": {
      "resourceType": "Observation",
      "id": "8930ea32-96f8-45ab-9f31-9f8c05fe3bb6",
      "meta": {
        "versionId": "1616752823000",
        "lastUpdated": "2021-03-26T10:00:23.000+00:00"
      },
      "status": "final",
      "code": {
        "coding": [ {
          "code": "5096AAAAAAAAAAAAAAAAAAAAAAAAAAAAAAAA",
          "display": "RETURN VISIT DATE"
        }, {
          "system": "https://cielterminology.org",
          "code": "5096"
        } ],
        "text": "RETURN VISIT DATE"
      },
      "subject": {
        "reference": "Patient/b6cf5a65-1d2c-11eb-8abc-0242e805c5c5",
        "type": "Patient",
        "display": "arot arot arot (OpenMRS ID: MGFVXX)"
      },
      "encounter": {
        "reference": "Encounter/551a3da7-1c02-406c-8321-3d48a191d03c",
        "type": "Encounter"
      },
      "effectiveDateTime": "2021-03-23T09:57:00+00:00",
      "issued": "2021-03-26T10:00:23.000+00:00",
      "valueDateTime": "2021-07-20T00:00:00+00:00"
    },
    "request": {
      "method": "PUT",
      "url": "Observation/551a3da7-1c02-406c-8321-3d48a191d03c"
    }
  }, {
    "resource": {
      "resourceType": "Observation",
      "id": "eb382024-c3d2-48a9-9eb1-5a3732d4ce37",
      "meta": {
        "versionId": "1627033467000",
        "lastUpdated": "2021-07-23T09:44:27.000+00:00"
      },
      "status": "final",
      "code": {
        "coding": [ {
          "code": "5096AAAAAAAAAAAAAAAAAAAAAAAAAAAAAAAA",
          "display": "RETURN VISIT DATE"
        }, {
          "system": "https://cielterminology.org",
          "code": "5096"
        } ],
        "text": "RETURN VISIT DATE"
      },
      "subject": {
        "reference": "Patient/b6cf5a65-1d2c-11eb-8abc-0242e805c5c5",
        "type": "Patient",
        "display": "arot arot arot (OpenMRS ID: MGFVXX)"
      },
      "encounter": {
        "reference": "Encounter/a98b65a9-505c-4ee9-8be1-04582f1a9ef9",
        "type": "Encounter"
      },
      "effectiveDateTime": "2021-07-23T09:42:56+00:00",
      "issued": "2021-07-23T09:44:27.000+00:00",
      "valueDateTime": "2021-10-22T00:00:00+00:00"
    },
    "request": {
      "method": "PUT",
      "url": "Observation/a98b65a9-505c-4ee9-8be1-04582f1a9ef9"
    }
  }, {
    "resource": {
      "resourceType": "Observation",
      "id": "9852e6e7-39db-4822-a9d1-7489907af5fe",
      "meta": {
        "versionId": "1635166887000",
        "lastUpdated": "2021-10-25T13:01:27.000+00:00"
      },
      "status": "final",
      "code": {
        "coding": [ {
          "code": "5096AAAAAAAAAAAAAAAAAAAAAAAAAAAAAAAA",
          "display": "RETURN VISIT DATE"
        }, {
          "system": "https://cielterminology.org",
          "code": "5096"
        } ],
        "text": "RETURN VISIT DATE"
      },
      "subject": {
        "reference": "Patient/b6cf5a65-1d2c-11eb-8abc-0242e805c5c5",
        "type": "Patient",
        "display": "arot arot arot (OpenMRS ID: MGFVXX)"
      },
      "encounter": {
        "reference": "Encounter/266fc4a5-f870-4a36-975e-bf61fbb45d9f",
        "type": "Encounter"
      },
      "effectiveDateTime": "2021-10-25T13:00:41+00:00",
      "issued": "2021-10-25T13:01:27.000+00:00",
      "valueDateTime": "2022-02-15T00:00:00+00:00"
    },
    "request": {
      "method": "PUT",
      "url": "Observation/266fc4a5-f870-4a36-975e-bf61fbb45d9f"
    }
  }, {
    "resource": {
      "resourceType": "Observation",
      "id": "9b2db2cc-f23a-42e8-86f5-24936519ffb8",
      "meta": {
        "versionId": "1645003494000",
        "lastUpdated": "2022-02-16T09:24:54.000+00:00"
      },
      "status": "final",
      "code": {
        "coding": [ {
          "code": "5096AAAAAAAAAAAAAAAAAAAAAAAAAAAAAAAA",
          "display": "RETURN VISIT DATE"
        }, {
          "system": "https://cielterminology.org",
          "code": "5096"
        } ],
        "text": "RETURN VISIT DATE"
      },
      "subject": {
        "reference": "Patient/b6cf5a65-1d2c-11eb-8abc-0242e805c5c5",
        "type": "Patient",
        "display": "arot arot arot (OpenMRS ID: MGFVXX)"
      },
      "encounter": {
        "reference": "Encounter/9e890176-8dad-476a-830e-b6f713c1ce7c",
        "type": "Encounter"
      },
      "effectiveDateTime": "2022-02-16T09:23:42+00:00",
      "issued": "2022-02-16T09:24:54.000+00:00",
      "valueDateTime": "2022-06-14T00:00:00+00:00"
    },
    "request": {
      "method": "PUT",
      "url": "Observation/9e890176-8dad-476a-830e-b6f713c1ce7c"
    }
  }, {
    "resource": {
      "resourceType": "Observation",
      "id": "3845f102-60b1-49aa-9031-9c4f8633d4a3",
      "meta": {
        "versionId": "1655215393000",
        "lastUpdated": "2022-06-14T14:03:13.000+00:00"
      },
      "status": "final",
      "code": {
        "coding": [ {
          "code": "5096AAAAAAAAAAAAAAAAAAAAAAAAAAAAAAAA",
          "display": "RETURN VISIT DATE"
        }, {
          "system": "https://cielterminology.org",
          "code": "5096"
        } ],
        "text": "RETURN VISIT DATE"
      },
      "subject": {
        "reference": "Patient/b6cf5a65-1d2c-11eb-8abc-0242e805c5c5",
        "type": "Patient",
        "display": "arot arot arot (OpenMRS ID: MGFVXX)"
      },
      "encounter": {
        "reference": "Encounter/495f0875-5fbd-4b2c-a35d-699cb5b27669",
        "type": "Encounter"
      },
      "effectiveDateTime": "2022-06-14T14:01:58+00:00",
      "issued": "2022-06-14T14:03:13.000+00:00",
      "valueDateTime": "2023-01-12T00:00:00+00:00"
    },
    "request": {
      "method": "PUT",
      "url": "Observation/495f0875-5fbd-4b2c-a35d-699cb5b27669"
    }
  }, {
    "resource": {
      "resourceType": "Observation",
      "id": "c375a957-a078-406f-af92-7c49b802d134",
      "meta": {
        "versionId": "1672845643000",
        "lastUpdated": "2023-01-04T15:20:43.000+00:00"
      },
      "status": "final",
      "code": {
        "coding": [ {
          "code": "5096AAAAAAAAAAAAAAAAAAAAAAAAAAAAAAAA",
          "display": "RETURN VISIT DATE"
        }, {
          "system": "https://cielterminology.org",
          "code": "5096"
        } ],
        "text": "RETURN VISIT DATE"
      },
      "subject": {
        "reference": "Patient/b6cf5a65-1d2c-11eb-8abc-0242e805c5c5",
        "type": "Patient",
        "display": "arot arot arot (OpenMRS ID: MGFVXX)"
      },
      "encounter": {
        "reference": "Encounter/37683513-d73a-44e6-9a9d-a0581827247f",
        "type": "Encounter"
      },
      "effectiveDateTime": "2023-01-03T15:18:00+00:00",
      "issued": "2023-01-04T15:20:43.000+00:00",
      "valueDateTime": "2023-03-17T00:00:00+00:00"
    },
    "request": {
      "method": "PUT",
      "url": "Observation/37683513-d73a-44e6-9a9d-a0581827247f"
    }
  }, {
    "resource": {
      "resourceType": "Observation",
      "id": "dce06e14-ae16-4e65-b6b2-06e623612863",
      "meta": {
        "versionId": "1679402601000",
        "lastUpdated": "2023-03-21T12:43:21.000+00:00"
      },
      "status": "final",
      "code": {
        "coding": [ {
          "code": "5096AAAAAAAAAAAAAAAAAAAAAAAAAAAAAAAA",
          "display": "RETURN VISIT DATE"
        }, {
          "system": "https://cielterminology.org",
          "code": "5096"
        } ],
        "text": "RETURN VISIT DATE"
      },
      "subject": {
        "reference": "Patient/b6cf5a65-1d2c-11eb-8abc-0242e805c5c5",
        "type": "Patient",
        "display": "arot arot arot (OpenMRS ID: MGFVXX)"
      },
      "encounter": {
        "reference": "Encounter/14f68b77-e1c8-4cb3-b335-4aab2d3a91dd",
        "type": "Encounter"
      },
      "effectiveDateTime": "2023-03-17T12:42:00+00:00",
      "issued": "2023-03-21T12:43:21.000+00:00",
      "valueDateTime": "2023-06-14T00:00:00+00:00"
    },
    "request": {
      "method": "PUT",
      "url": "Observation/14f68b77-e1c8-4cb3-b335-4aab2d3a91dd"
    }
  }, {
    "resource": {
      "resourceType": "Observation",
      "id": "b242d556-6d09-4f83-a3ee-d3cf1db8dc1f",
      "meta": {
        "versionId": "1686829794000",
        "lastUpdated": "2023-06-15T11:49:54.000+00:00"
      },
      "status": "final",
      "code": {
        "coding": [ {
          "code": "5096AAAAAAAAAAAAAAAAAAAAAAAAAAAAAAAA",
          "display": "RETURN VISIT DATE"
        }, {
          "system": "https://cielterminology.org",
          "code": "5096"
        } ],
        "text": "RETURN VISIT DATE"
      },
      "subject": {
        "reference": "Patient/b6cf5a65-1d2c-11eb-8abc-0242e805c5c5",
        "type": "Patient",
        "display": "arot arot arot (OpenMRS ID: MGFVXX)"
      },
      "encounter": {
        "reference": "Encounter/c93cfdd9-1a99-4b79-b55b-b40dcdad81b1",
        "type": "Encounter"
      },
      "effectiveDateTime": "2023-06-15T11:45:39+00:00",
      "issued": "2023-06-15T11:49:54.000+00:00",
      "valueDateTime": "2023-10-18T00:00:00+00:00"
    },
    "request": {
      "method": "PUT",
      "url": "Observation/c93cfdd9-1a99-4b79-b55b-b40dcdad81b1"
    }
  }, {
    "resource": {
      "resourceType": "Observation",
      "id": "2e103880-7b6b-4a14-9767-faa3317a3755",
      "meta": {
        "versionId": "1697710991000",
        "lastUpdated": "2023-10-19T10:23:11.000+00:00"
      },
      "status": "final",
      "code": {
        "coding": [ {
          "code": "5096AAAAAAAAAAAAAAAAAAAAAAAAAAAAAAAA",
          "display": "RETURN VISIT DATE"
        }, {
          "system": "https://cielterminology.org",
          "code": "5096"
        } ],
        "text": "RETURN VISIT DATE"
      },
      "subject": {
        "reference": "Patient/b6cf5a65-1d2c-11eb-8abc-0242e805c5c5",
        "type": "Patient",
        "display": "arot arot arot (OpenMRS ID: MGFVXX)"
      },
      "encounter": {
        "reference": "Encounter/faf9c140-a0c5-435e-9331-5b640090db95",
        "type": "Encounter"
      },
      "effectiveDateTime": "2023-10-18T10:21:00+00:00",
      "issued": "2023-10-19T10:23:11.000+00:00",
      "valueDateTime": "2024-01-19T00:00:00+00:00"
    },
    "request": {
      "method": "PUT",
      "url": "Observation/faf9c140-a0c5-435e-9331-5b640090db95"
    }
  }, {
    "resource": {
      "resourceType": "Patient",
      "id": "b6dd43e3-1d2c-11eb-8abc-0242e805c5c5",
      "meta": {
        "versionId": "1604347144000",
        "lastUpdated": "2020-11-02T19:59:04.000+00:00"
      },
      "identifier": [ {
        "id": "b6f0b8a8-1d2c-11eb-8abc-0242e805c5c5",
        "extension": [ {
          "url": "http://fhir.openmrs.org/ext/patient/identifier#location",
          "valueReference": {
            "reference": "Location/a92f9952-1c4c-4659-893b-a6b56a16b1df",
            "type": "Location",
            "display": "Ngarua Health Centre"
          }
        } ],
        "use": "official",
        "type": {
          "coding": [ {
            "code": "dfacd928-0370-4315-99d7-6ec1c9f7ae76"
          } ],
          "text": "OpenMRS ID"
        },
        "value": "MGFVYV"
      }, {
        "id": "b6dd6cf6-1d2c-11eb-8abc-0242e805c5c5",
        "extension": [ {
          "url": "http://fhir.openmrs.org/ext/patient/identifier#location",
          "valueReference": {
            "reference": "Location/a92f9952-1c4c-4659-893b-a6b56a16b1df",
            "type": "Location",
            "display": "Ngarua Health Centre"
          }
        } ],
        "use": "usual",
        "type": {
          "coding": [ {
            "code": "05ee9cf4-7242-4a17-b4d4-00f707265c8a"
          } ],
          "text": "Unique Patient Number"
        },
        "value": "1318633515"
      }, {
        "id": "807f852f-c023-43e6-8bb6-e6f3f512ab51",
        "extension": [ {
          "url": "http://fhir.openmrs.org/ext/patient/identifier#location",
          "valueReference": {
            "reference": "Location/a92f9952-1c4c-4659-893b-a6b56a16b1df",
            "type": "Location",
            "display": "Ngarua Health Centre"
          }
        } ],
        "use": "usual",
        "type": {
          "coding": [ {
            "code": "49af6cdc-7968-4abb-bf46-de10d7f4859f"
          } ],
          "text": "National ID"
        },
        "value": "99977997"
      }, {
        "id": "f8cdc3bd-e0c7-4b21-84db-a80c3cb94902",
        "extension": [ {
          "url": "http://fhir.openmrs.org/ext/patient/identifier#location",
          "valueReference": {
            "reference": "Location/a92f9952-1c4c-4659-893b-a6b56a16b1df",
            "type": "Location",
            "display": "Ngarua Health Centre"
          }
        } ],
        "use": "usual",
        "type": {
          "coding": [ {
            "code": "f85081e2-b4be-4e48-b3a4-7994b69bb101"
          } ],
          "text": "National Unique patient identifier"
        },
        "value": "0000000700009"
      } ],
      "active": true,
      "name": [ {
        "id": "b6dd5692-1d2c-11eb-8abc-0242e805c5c5",
        "family": "RAEL",
        "given": [ "RAEL", "RAEL" ]
      } ],
      "gender": "male",
      "birthDate": "1975-06-15",
      "deceasedBoolean": false,
      "address": [ {
        "id": "b6dd6208-1d2c-11eb-8abc-0242e805c5c5",
        "extension": [ {
          "url": "http://fhir.openmrs.org/ext/address",
          "extension": [ {
            "url": "http://fhir.openmrs.org/ext/address#address1",
            "valueString": "332 address1"
          }, {
            "url": "http://fhir.openmrs.org/ext/address#address4",
            "valueString": "Marmanet"
          } ]
        } ],
        "use": "home",
        "city": "karandi",
        "district": "Laikipia",
        "state": "Laikipia West"
      } ]
    },
    "request": {
      "method": "PUT",
      "url": "Patient/b6dd43e3-1d2c-11eb-8abc-0242e805c5c5"
    }
  }, {
    "resource": {
      "resourceType": "Observation",
      "id": "373c7b06-2ba7-4508-8760-bf0a81f45958",
      "meta": {
        "versionId": "1684334691000",
        "lastUpdated": "2023-05-17T14:44:51.000+00:00"
      },
      "status": "final",
      "code": {
        "coding": [ {
          "code": "160540AAAAAAAAAAAAAAAAAAAAAAAAAAAAAA",
          "display": "Method of enrollment"
        }, {
          "system": "http://loinc.org",
          "code": "45252-4"
        }, {
          "system": "https://cielterminology.org",
          "code": "160540"
        } ],
        "text": "Method of enrollment"
      },
      "subject": {
        "reference": "Patient/b6dd43e3-1d2c-11eb-8abc-0242e805c5c5",
        "type": "Patient",
        "display": "RAEL RAEL RAEL (OpenMRS ID: MGFVYV)"
      },
      "encounter": {
        "reference": "Encounter/12d49e9a-1d2d-11eb-8abc-0242e805c5c5",
        "type": "Encounter"
      },
      "effectiveDateTime": "2015-05-26T00:00:00+00:00",
      "issued": "2023-05-17T14:44:51.000+00:00",
      "valueCodeableConcept": {
        "coding": [ {
          "code": "160542AAAAAAAAAAAAAAAAAAAAAAAAAAAAAA",
          "display": "Outpatient department"
        }, {
          "system": "https://cielterminology.org",
          "code": "160542"
        }, {
          "system": "http://snomed.info/sct/",
          "code": "33022008"
        } ],
        "text": "Outpatient department"
      }
    },
    "request": {
      "method": "PUT",
      "url": "Observation/12d49e9a-1d2d-11eb-8abc-0242e805c5c5"
    }
  }, {
    "resource": {
      "resourceType": "Observation",
      "id": "77c87634-1d2e-11eb-8abc-0242e805c5c5",
      "meta": {
        "versionId": "1604347898000",
        "lastUpdated": "2020-11-02T20:11:38.000+00:00"
      },
      "status": "final",
      "code": {
        "coding": [ {
          "code": "1193AAAAAAAAAAAAAAAAAAAAAAAAAAAAAAAA",
          "display": "CURRENT DRUGS USED"
        }, {
          "system": "https://cielterminology.org",
          "code": "1193"
        } ],
        "text": "CURRENT DRUGS USED"
      },
      "subject": {
        "reference": "Patient/b6dd43e3-1d2c-11eb-8abc-0242e805c5c5",
        "type": "Patient",
        "display": "RAEL RAEL RAEL (OpenMRS ID: MGFVYV)"
      },
      "encounter": {
        "reference": "Encounter/77c8353d-1d2e-11eb-8abc-0242e805c5c5",
        "type": "Encounter"
      },
      "effectiveDateTime": "2018-02-07T00:00:00+00:00",
      "issued": "2020-11-02T20:11:38.000+00:00",
      "valueCodeableConcept": {
        "coding": [ {
          "code": "164505AAAAAAAAAAAAAAAAAAAAAAAAAAAAAA",
          "display": "Lamivudine / Efavirenz / Tenofovir"
        }, {
          "system": "https://cielterminology.org",
          "code": "164505"
        } ],
        "text": "Lamivudine / Efavirenz / Tenofovir"
      }
    },
    "request": {
      "method": "PUT",
      "url": "Observation/77c8353d-1d2e-11eb-8abc-0242e805c5c5"
    }
  }, {
    "resource": {
      "resourceType": "Observation",
      "id": "338ff62b-1d2e-11eb-8abc-0242e805c5c5",
      "meta": {
        "versionId": "1604347783000",
        "lastUpdated": "2020-11-02T20:09:43.000+00:00"
      },
      "status": "final",
      "code": {
        "coding": [ {
          "code": "5096AAAAAAAAAAAAAAAAAAAAAAAAAAAAAAAA",
          "display": "RETURN VISIT DATE"
        }, {
          "system": "https://cielterminology.org",
          "code": "5096"
        } ],
        "text": "RETURN VISIT DATE"
      },
      "subject": {
        "reference": "Patient/b6dd43e3-1d2c-11eb-8abc-0242e805c5c5",
        "type": "Patient",
        "display": "RAEL RAEL RAEL (OpenMRS ID: MGFVYV)"
      },
      "encounter": {
        "reference": "Encounter/338f70e6-1d2e-11eb-8abc-0242e805c5c5",
        "type": "Encounter"
      },
      "effectiveDateTime": "2018-02-07T00:00:00+00:00",
      "issued": "2020-11-02T20:09:43.000+00:00",
      "valueDateTime": "2018-04-08T00:00:00+00:00"
    },
    "request": {
      "method": "PUT",
      "url": "Observation/338f70e6-1d2e-11eb-8abc-0242e805c5c5"
    }
  }, {
    "resource": {
      "resourceType": "Observation",
      "id": "3397c1f5-1d2e-11eb-8abc-0242e805c5c5",
      "meta": {
        "versionId": "1604347783000",
        "lastUpdated": "2020-11-02T20:09:43.000+00:00"
      },
      "status": "final",
      "code": {
        "coding": [ {
          "code": "5096AAAAAAAAAAAAAAAAAAAAAAAAAAAAAAAA",
          "display": "RETURN VISIT DATE"
        }, {
          "system": "https://cielterminology.org",
          "code": "5096"
        } ],
        "text": "RETURN VISIT DATE"
      },
      "subject": {
        "reference": "Patient/b6dd43e3-1d2c-11eb-8abc-0242e805c5c5",
        "type": "Patient",
        "display": "RAEL RAEL RAEL (OpenMRS ID: MGFVYV)"
      },
      "encounter": {
        "reference": "Encounter/33973aee-1d2e-11eb-8abc-0242e805c5c5",
        "type": "Encounter"
      },
      "effectiveDateTime": "2018-04-09T00:00:00+00:00",
      "issued": "2020-11-02T20:09:43.000+00:00",
      "valueDateTime": "2018-05-09T00:00:00+00:00"
    },
    "request": {
      "method": "PUT",
      "url": "Observation/33973aee-1d2e-11eb-8abc-0242e805c5c5"
    }
  }, {
    "resource": {
      "resourceType": "Observation",
      "id": "339f2c7a-1d2e-11eb-8abc-0242e805c5c5",
      "meta": {
        "versionId": "1604347783000",
        "lastUpdated": "2020-11-02T20:09:43.000+00:00"
      },
      "status": "final",
      "code": {
        "coding": [ {
          "code": "5096AAAAAAAAAAAAAAAAAAAAAAAAAAAAAAAA",
          "display": "RETURN VISIT DATE"
        }, {
          "system": "https://cielterminology.org",
          "code": "5096"
        } ],
        "text": "RETURN VISIT DATE"
      },
      "subject": {
        "reference": "Patient/b6dd43e3-1d2c-11eb-8abc-0242e805c5c5",
        "type": "Patient",
        "display": "RAEL RAEL RAEL (OpenMRS ID: MGFVYV)"
      },
      "encounter": {
        "reference": "Encounter/339ea84c-1d2e-11eb-8abc-0242e805c5c5",
        "type": "Encounter"
      },
      "effectiveDateTime": "2018-05-14T00:00:00+00:00",
      "issued": "2020-11-02T20:09:43.000+00:00",
      "valueDateTime": "2018-06-13T00:00:00+00:00"
    },
    "request": {
      "method": "PUT",
      "url": "Observation/339ea84c-1d2e-11eb-8abc-0242e805c5c5"
    }
  }, {
    "resource": {
      "resourceType": "Observation",
      "id": "33a6f831-1d2e-11eb-8abc-0242e805c5c5",
      "meta": {
        "versionId": "1604347783000",
        "lastUpdated": "2020-11-02T20:09:43.000+00:00"
      },
      "status": "final",
      "code": {
        "coding": [ {
          "code": "5096AAAAAAAAAAAAAAAAAAAAAAAAAAAAAAAA",
          "display": "RETURN VISIT DATE"
        }, {
          "system": "https://cielterminology.org",
          "code": "5096"
        } ],
        "text": "RETURN VISIT DATE"
      },
      "subject": {
        "reference": "Patient/b6dd43e3-1d2c-11eb-8abc-0242e805c5c5",
        "type": "Patient",
        "display": "RAEL RAEL RAEL (OpenMRS ID: MGFVYV)"
      },
      "encounter": {
        "reference": "Encounter/33a6710f-1d2e-11eb-8abc-0242e805c5c5",
        "type": "Encounter"
      },
      "effectiveDateTime": "2018-06-13T00:00:00+00:00",
      "issued": "2020-11-02T20:09:43.000+00:00",
      "valueDateTime": "2018-09-11T00:00:00+00:00"
    },
    "request": {
      "method": "PUT",
      "url": "Observation/33a6710f-1d2e-11eb-8abc-0242e805c5c5"
    }
  }, {
    "resource": {
      "resourceType": "Observation",
      "id": "33afe3d1-1d2e-11eb-8abc-0242e805c5c5",
      "meta": {
        "versionId": "1604347783000",
        "lastUpdated": "2020-11-02T20:09:43.000+00:00"
      },
      "status": "final",
      "code": {
        "coding": [ {
          "code": "5096AAAAAAAAAAAAAAAAAAAAAAAAAAAAAAAA",
          "display": "RETURN VISIT DATE"
        }, {
          "system": "https://cielterminology.org",
          "code": "5096"
        } ],
        "text": "RETURN VISIT DATE"
      },
      "subject": {
        "reference": "Patient/b6dd43e3-1d2c-11eb-8abc-0242e805c5c5",
        "type": "Patient",
        "display": "RAEL RAEL RAEL (OpenMRS ID: MGFVYV)"
      },
      "encounter": {
        "reference": "Encounter/33af5cc9-1d2e-11eb-8abc-0242e805c5c5",
        "type": "Encounter"
      },
      "effectiveDateTime": "2018-09-10T00:00:00+00:00",
      "issued": "2020-11-02T20:09:43.000+00:00",
      "valueDateTime": "2018-12-20T00:00:00+00:00"
    },
    "request": {
      "method": "PUT",
      "url": "Observation/33af5cc9-1d2e-11eb-8abc-0242e805c5c5"
    }
  }, {
    "resource": {
      "resourceType": "Observation",
      "id": "33b78892-1d2e-11eb-8abc-0242e805c5c5",
      "meta": {
        "versionId": "1604347783000",
        "lastUpdated": "2020-11-02T20:09:43.000+00:00"
      },
      "status": "final",
      "code": {
        "coding": [ {
          "code": "5096AAAAAAAAAAAAAAAAAAAAAAAAAAAAAAAA",
          "display": "RETURN VISIT DATE"
        }, {
          "system": "https://cielterminology.org",
          "code": "5096"
        } ],
        "text": "RETURN VISIT DATE"
      },
      "subject": {
        "reference": "Patient/b6dd43e3-1d2c-11eb-8abc-0242e805c5c5",
        "type": "Patient",
        "display": "RAEL RAEL RAEL (OpenMRS ID: MGFVYV)"
      },
      "encounter": {
        "reference": "Encounter/33b6fe27-1d2e-11eb-8abc-0242e805c5c5",
        "type": "Encounter"
      },
      "effectiveDateTime": "2019-02-22T00:00:00+00:00",
      "issued": "2020-11-02T20:09:43.000+00:00",
      "valueDateTime": "2019-03-24T00:00:00+00:00"
    },
    "request": {
      "method": "PUT",
      "url": "Observation/33b6fe27-1d2e-11eb-8abc-0242e805c5c5"
    }
  }, {
    "resource": {
      "resourceType": "Observation",
      "id": "33c2a7f0-1d2e-11eb-8abc-0242e805c5c5",
      "meta": {
        "versionId": "1604347783000",
        "lastUpdated": "2020-11-02T20:09:43.000+00:00"
      },
      "status": "final",
      "code": {
        "coding": [ {
          "code": "5096AAAAAAAAAAAAAAAAAAAAAAAAAAAAAAAA",
          "display": "RETURN VISIT DATE"
        }, {
          "system": "https://cielterminology.org",
          "code": "5096"
        } ],
        "text": "RETURN VISIT DATE"
      },
      "subject": {
        "reference": "Patient/b6dd43e3-1d2c-11eb-8abc-0242e805c5c5",
        "type": "Patient",
        "display": "RAEL RAEL RAEL (OpenMRS ID: MGFVYV)"
      },
      "encounter": {
        "reference": "Encounter/33c27403-1d2e-11eb-8abc-0242e805c5c5",
        "type": "Encounter"
      },
      "effectiveDateTime": "2019-05-14T00:00:00+00:00",
      "issued": "2020-11-02T20:09:43.000+00:00",
      "valueDateTime": "2019-08-12T00:00:00+00:00"
    },
    "request": {
      "method": "PUT",
      "url": "Observation/33c27403-1d2e-11eb-8abc-0242e805c5c5"
    }
  }, {
    "resource": {
      "resourceType": "Observation",
      "id": "33ca6f97-1d2e-11eb-8abc-0242e805c5c5",
      "meta": {
        "versionId": "1604347783000",
        "lastUpdated": "2020-11-02T20:09:43.000+00:00"
      },
      "status": "final",
      "code": {
        "coding": [ {
          "code": "5096AAAAAAAAAAAAAAAAAAAAAAAAAAAAAAAA",
          "display": "RETURN VISIT DATE"
        }, {
          "system": "https://cielterminology.org",
          "code": "5096"
        } ],
        "text": "RETURN VISIT DATE"
      },
      "subject": {
        "reference": "Patient/b6dd43e3-1d2c-11eb-8abc-0242e805c5c5",
        "type": "Patient",
        "display": "RAEL RAEL RAEL (OpenMRS ID: MGFVYV)"
      },
      "encounter": {
        "reference": "Encounter/33ca3185-1d2e-11eb-8abc-0242e805c5c5",
        "type": "Encounter"
      },
      "effectiveDateTime": "2020-02-20T00:00:00+00:00",
      "issued": "2020-11-02T20:09:43.000+00:00",
      "valueDateTime": "2020-05-20T00:00:00+00:00"
    },
    "request": {
      "method": "PUT",
      "url": "Observation/33ca3185-1d2e-11eb-8abc-0242e805c5c5"
    }
  }, {
    "resource": {
      "resourceType": "Observation",
      "id": "33d28253-1d2e-11eb-8abc-0242e805c5c5",
      "meta": {
        "versionId": "1604347784000",
        "lastUpdated": "2020-11-02T20:09:44.000+00:00"
      },
      "status": "final",
      "code": {
        "coding": [ {
          "code": "5096AAAAAAAAAAAAAAAAAAAAAAAAAAAAAAAA",
          "display": "RETURN VISIT DATE"
        }, {
          "system": "https://cielterminology.org",
          "code": "5096"
        } ],
        "text": "RETURN VISIT DATE"
      },
      "subject": {
        "reference": "Patient/b6dd43e3-1d2c-11eb-8abc-0242e805c5c5",
        "type": "Patient",
        "display": "RAEL RAEL RAEL (OpenMRS ID: MGFVYV)"
      },
      "encounter": {
        "reference": "Encounter/33d1b002-1d2e-11eb-8abc-0242e805c5c5",
        "type": "Encounter"
      },
      "effectiveDateTime": "2020-05-13T00:00:00+00:00",
      "issued": "2020-11-02T20:09:44.000+00:00",
      "valueDateTime": "2020-10-15T00:00:00+00:00"
    },
    "request": {
      "method": "PUT",
      "url": "Observation/33d1b002-1d2e-11eb-8abc-0242e805c5c5"
    }
  }, {
    "resource": {
      "resourceType": "Observation",
      "id": "33d97b27-1d2e-11eb-8abc-0242e805c5c5",
      "meta": {
        "versionId": "1604347784000",
        "lastUpdated": "2020-11-02T20:09:44.000+00:00"
      },
      "status": "final",
      "code": {
        "coding": [ {
          "code": "5096AAAAAAAAAAAAAAAAAAAAAAAAAAAAAAAA",
          "display": "RETURN VISIT DATE"
        }, {
          "system": "https://cielterminology.org",
          "code": "5096"
        } ],
        "text": "RETURN VISIT DATE"
      },
      "subject": {
        "reference": "Patient/b6dd43e3-1d2c-11eb-8abc-0242e805c5c5",
        "type": "Patient",
        "display": "RAEL RAEL RAEL (OpenMRS ID: MGFVYV)"
      },
      "encounter": {
        "reference": "Encounter/33d953fa-1d2e-11eb-8abc-0242e805c5c5",
        "type": "Encounter"
      },
      "effectiveDateTime": "2020-10-12T00:00:00+00:00",
      "issued": "2020-11-02T20:09:44.000+00:00",
      "valueDateTime": "2020-10-17T00:00:00+00:00"
    },
    "request": {
      "method": "PUT",
      "url": "Observation/33d953fa-1d2e-11eb-8abc-0242e805c5c5"
    }
  }, {
    "resource": {
      "resourceType": "Observation",
      "id": "33e08e87-1d2e-11eb-8abc-0242e805c5c5",
      "meta": {
        "versionId": "1604347784000",
        "lastUpdated": "2020-11-02T20:09:44.000+00:00"
      },
      "status": "final",
      "code": {
        "coding": [ {
          "code": "5096AAAAAAAAAAAAAAAAAAAAAAAAAAAAAAAA",
          "display": "RETURN VISIT DATE"
        }, {
          "system": "https://cielterminology.org",
          "code": "5096"
        } ],
        "text": "RETURN VISIT DATE"
      },
      "subject": {
        "reference": "Patient/b6dd43e3-1d2c-11eb-8abc-0242e805c5c5",
        "type": "Patient",
        "display": "RAEL RAEL RAEL (OpenMRS ID: MGFVYV)"
      },
      "encounter": {
        "reference": "Encounter/33dfc419-1d2e-11eb-8abc-0242e805c5c5",
        "type": "Encounter"
      },
      "effectiveDateTime": "2020-10-15T00:00:00+00:00",
      "issued": "2020-11-02T20:09:44.000+00:00",
      "valueDateTime": "2021-01-23T00:00:00+00:00"
    },
    "request": {
      "method": "PUT",
      "url": "Observation/33dfc419-1d2e-11eb-8abc-0242e805c5c5"
    }
  }, {
    "resource": {
      "resourceType": "Observation",
      "id": "c3dce135-f746-4165-8cf3-599b32000ad7",
      "meta": {
        "versionId": "1611051237000",
        "lastUpdated": "2021-01-19T10:13:57.000+00:00"
      },
      "status": "final",
      "code": {
        "coding": [ {
          "code": "5096AAAAAAAAAAAAAAAAAAAAAAAAAAAAAAAA",
          "display": "RETURN VISIT DATE"
        }, {
          "system": "https://cielterminology.org",
          "code": "5096"
        } ],
        "text": "RETURN VISIT DATE"
      },
      "subject": {
        "reference": "Patient/b6dd43e3-1d2c-11eb-8abc-0242e805c5c5",
        "type": "Patient",
        "display": "RAEL RAEL RAEL (OpenMRS ID: MGFVYV)"
      },
      "encounter": {
        "reference": "Encounter/0eb33c7d-350d-4651-87fc-f7aa7438a11f",
        "type": "Encounter"
      },
      "effectiveDateTime": "2021-01-19T10:12:49+00:00",
      "issued": "2021-01-19T10:13:57.000+00:00",
      "valueDateTime": "2021-06-17T00:00:00+00:00"
    },
    "request": {
      "method": "PUT",
      "url": "Observation/0eb33c7d-350d-4651-87fc-f7aa7438a11f"
    }
  }, {
    "resource": {
      "resourceType": "Observation",
      "id": "d6468d35-a507-480c-a096-3b3f09303660",
      "meta": {
        "versionId": "1623936522000",
        "lastUpdated": "2021-06-17T13:28:42.000+00:00"
      },
      "status": "final",
      "code": {
        "coding": [ {
          "code": "5096AAAAAAAAAAAAAAAAAAAAAAAAAAAAAAAA",
          "display": "RETURN VISIT DATE"
        }, {
          "system": "https://cielterminology.org",
          "code": "5096"
        } ],
        "text": "RETURN VISIT DATE"
      },
      "subject": {
        "reference": "Patient/b6dd43e3-1d2c-11eb-8abc-0242e805c5c5",
        "type": "Patient",
        "display": "RAEL RAEL RAEL (OpenMRS ID: MGFVYV)"
      },
      "encounter": {
        "reference": "Encounter/694a6168-e3d2-47c5-a7d0-49b9e1dee3db",
        "type": "Encounter"
      },
      "effectiveDateTime": "2021-06-17T13:28:16+00:00",
      "issued": "2021-06-17T13:28:42.000+00:00",
      "valueDateTime": "2021-10-12T00:00:00+00:00"
    },
    "request": {
      "method": "PUT",
      "url": "Observation/694a6168-e3d2-47c5-a7d0-49b9e1dee3db"
    }
  }, {
    "resource": {
      "resourceType": "Observation",
      "id": "8a4729fd-b95f-4917-8e77-0d5aae237b70",
      "meta": {
        "versionId": "1634034474000",
        "lastUpdated": "2021-10-12T10:27:54.000+00:00"
      },
      "status": "final",
      "code": {
        "coding": [ {
          "code": "5096AAAAAAAAAAAAAAAAAAAAAAAAAAAAAAAA",
          "display": "RETURN VISIT DATE"
        }, {
          "system": "https://cielterminology.org",
          "code": "5096"
        } ],
        "text": "RETURN VISIT DATE"
      },
      "subject": {
        "reference": "Patient/b6dd43e3-1d2c-11eb-8abc-0242e805c5c5",
        "type": "Patient",
        "display": "RAEL RAEL RAEL (OpenMRS ID: MGFVYV)"
      },
      "encounter": {
        "reference": "Encounter/0deea021-27fb-4d1f-855b-55969eea9b5a",
        "type": "Encounter"
      },
      "effectiveDateTime": "2021-10-12T09:57:42+00:00",
      "issued": "2021-10-12T10:27:54.000+00:00",
      "valueDateTime": "2022-01-11T00:00:00+00:00"
    },
    "request": {
      "method": "PUT",
      "url": "Observation/0deea021-27fb-4d1f-855b-55969eea9b5a"
    }
  }, {
    "resource": {
      "resourceType": "Observation",
      "id": "f9748e11-d6d3-4235-aa4e-8d62e70f0c27",
      "meta": {
        "versionId": "1640007984000",
        "lastUpdated": "2021-12-20T13:46:24.000+00:00"
      },
      "status": "final",
      "code": {
        "coding": [ {
          "code": "5096AAAAAAAAAAAAAAAAAAAAAAAAAAAAAAAA",
          "display": "RETURN VISIT DATE"
        }, {
          "system": "https://cielterminology.org",
          "code": "5096"
        } ],
        "text": "RETURN VISIT DATE"
      },
      "subject": {
        "reference": "Patient/b6dd43e3-1d2c-11eb-8abc-0242e805c5c5",
        "type": "Patient",
        "display": "RAEL RAEL RAEL (OpenMRS ID: MGFVYV)"
      },
      "encounter": {
        "reference": "Encounter/e4ca0aee-c188-4f1a-b320-5f219cb0dff2",
        "type": "Encounter"
      },
      "effectiveDateTime": "2021-12-20T13:45:23+00:00",
      "issued": "2021-12-20T13:46:24.000+00:00",
      "valueDateTime": "2022-03-16T00:00:00+00:00"
    },
    "request": {
      "method": "PUT",
      "url": "Observation/e4ca0aee-c188-4f1a-b320-5f219cb0dff2"
    }
  }, {
    "resource": {
      "resourceType": "Observation",
      "id": "ea348af2-2f78-4d5a-8e19-ae022854f4e1",
      "meta": {
        "versionId": "1642778198000",
        "lastUpdated": "2022-01-21T15:16:38.000+00:00"
      },
      "status": "final",
      "code": {
        "coding": [ {
          "code": "5096AAAAAAAAAAAAAAAAAAAAAAAAAAAAAAAA",
          "display": "RETURN VISIT DATE"
        }, {
          "system": "https://cielterminology.org",
          "code": "5096"
        } ],
        "text": "RETURN VISIT DATE"
      },
      "subject": {
        "reference": "Patient/b6dd43e3-1d2c-11eb-8abc-0242e805c5c5",
        "type": "Patient",
        "display": "RAEL RAEL RAEL (OpenMRS ID: MGFVYV)"
      },
      "encounter": {
        "reference": "Encounter/a9028279-f1ee-4da8-8906-9f0167576962",
        "type": "Encounter"
      },
      "effectiveDateTime": "2022-01-21T15:15:38+00:00",
      "issued": "2022-01-21T15:16:38.000+00:00",
      "valueDateTime": "2022-04-12T00:00:00+00:00"
    },
    "request": {
      "method": "PUT",
      "url": "Observation/a9028279-f1ee-4da8-8906-9f0167576962"
    }
  }, {
    "resource": {
      "resourceType": "Observation",
      "id": "12b03268-e137-4b03-8147-6dcc9a6ca7b3",
      "meta": {
        "versionId": "1652434781000",
        "lastUpdated": "2022-05-13T09:39:41.000+00:00"
      },
      "status": "final",
      "code": {
        "coding": [ {
          "code": "5096AAAAAAAAAAAAAAAAAAAAAAAAAAAAAAAA",
          "display": "RETURN VISIT DATE"
        }, {
          "system": "https://cielterminology.org",
          "code": "5096"
        } ],
        "text": "RETURN VISIT DATE"
      },
      "subject": {
        "reference": "Patient/b6dd43e3-1d2c-11eb-8abc-0242e805c5c5",
        "type": "Patient",
        "display": "RAEL RAEL RAEL (OpenMRS ID: MGFVYV)"
      },
      "encounter": {
        "reference": "Encounter/77eceb00-38d2-4b03-87f6-9d0eda2a7670",
        "type": "Encounter"
      },
      "effectiveDateTime": "2022-05-13T09:37:27+00:00",
      "issued": "2022-05-13T09:39:41.000+00:00",
      "valueDateTime": "2022-10-12T00:00:00+00:00"
    },
    "request": {
      "method": "PUT",
      "url": "Observation/77eceb00-38d2-4b03-87f6-9d0eda2a7670"
    }
  }, {
    "resource": {
      "resourceType": "Observation",
      "id": "e646bcf7-f750-42ca-8441-c553fd26fe49",
      "meta": {
        "versionId": "1666714187000",
        "lastUpdated": "2022-10-25T16:09:47.000+00:00"
      },
      "status": "final",
      "code": {
        "coding": [ {
          "code": "5096AAAAAAAAAAAAAAAAAAAAAAAAAAAAAAAA",
          "display": "RETURN VISIT DATE"
        }, {
          "system": "https://cielterminology.org",
          "code": "5096"
        } ],
        "text": "RETURN VISIT DATE"
      },
      "subject": {
        "reference": "Patient/b6dd43e3-1d2c-11eb-8abc-0242e805c5c5",
        "type": "Patient",
        "display": "RAEL RAEL RAEL (OpenMRS ID: MGFVYV)"
      },
      "encounter": {
        "reference": "Encounter/59b45e68-946e-4aca-ad11-2a04fa88fd6d",
        "type": "Encounter"
      },
      "effectiveDateTime": "2022-10-25T16:09:02+00:00",
      "issued": "2022-10-25T16:09:47.000+00:00",
      "valueDateTime": "2023-02-22T00:00:00+00:00"
    },
    "request": {
      "method": "PUT",
      "url": "Observation/59b45e68-946e-4aca-ad11-2a04fa88fd6d"
    }
  }, {
    "resource": {
      "resourceType": "Observation",
      "id": "a1fbd50a-c997-4208-b040-f7094e2be156",
      "meta": {
        "versionId": "1679394607000",
        "lastUpdated": "2023-03-21T10:30:07.000+00:00"
      },
      "status": "final",
      "code": {
        "coding": [ {
          "code": "5096AAAAAAAAAAAAAAAAAAAAAAAAAAAAAAAA",
          "display": "RETURN VISIT DATE"
        }, {
          "system": "https://cielterminology.org",
          "code": "5096"
        } ],
        "text": "RETURN VISIT DATE"
      },
      "subject": {
        "reference": "Patient/b6dd43e3-1d2c-11eb-8abc-0242e805c5c5",
        "type": "Patient",
        "display": "RAEL RAEL RAEL (OpenMRS ID: MGFVYV)"
      },
      "encounter": {
        "reference": "Encounter/1e76f937-56e0-489a-8ff6-28d86e9aad93",
        "type": "Encounter"
      },
      "effectiveDateTime": "2023-03-20T10:28:00+00:00",
      "issued": "2023-03-21T10:30:07.000+00:00",
      "valueDateTime": "2023-06-14T00:00:00+00:00"
    },
    "request": {
      "method": "PUT",
      "url": "Observation/1e76f937-56e0-489a-8ff6-28d86e9aad93"
    }
  }, {
    "resource": {
      "resourceType": "Patient",
      "id": "b6f0d594-1d2c-11eb-8abc-0242e805c5c5",
      "meta": {
        "versionId": "1604347144000",
        "lastUpdated": "2020-11-02T19:59:04.000+00:00"
      },
      "identifier": [ {
        "id": "b7037bdb-1d2c-11eb-8abc-0242e805c5c5",
        "extension": [ {
          "url": "http://fhir.openmrs.org/ext/patient/identifier#location",
          "valueReference": {
            "reference": "Location/a92f9952-1c4c-4659-893b-a6b56a16b1df",
            "type": "Location",
            "display": "Ngarua Health Centre"
          }
        } ],
        "use": "official",
        "type": {
          "coding": [ {
            "code": "dfacd928-0370-4315-99d7-6ec1c9f7ae76"
          } ],
          "text": "OpenMRS ID"
        },
        "value": "MGFW3T"
      }, {
        "id": "b6f124c0-1d2c-11eb-8abc-0242e805c5c5",
        "extension": [ {
          "url": "http://fhir.openmrs.org/ext/patient/identifier#location",
          "valueReference": {
            "reference": "Location/a92f9952-1c4c-4659-893b-a6b56a16b1df",
            "type": "Location",
            "display": "Ngarua Health Centre"
          }
        } ],
        "use": "usual",
        "type": {
          "coding": [ {
            "code": "05ee9cf4-7242-4a17-b4d4-00f707265c8a"
          } ],
          "text": "Unique Patient Number"
        },
        "value": "1567800323"
      }, {
        "id": "21803aed-ac37-4bef-ae65-42b5af204bcf",
        "extension": [ {
          "url": "http://fhir.openmrs.org/ext/patient/identifier#location",
          "valueReference": {
            "reference": "Location/a92f9952-1c4c-4659-893b-a6b56a16b1df",
            "type": "Location",
            "display": "Ngarua Health Centre"
          }
        } ],
        "use": "usual",
        "type": {
          "coding": [ {
            "code": "49af6cdc-7968-4abb-bf46-de10d7f4859f"
          } ],
          "text": "National ID"
        },
        "value": "9999997"
      }, {
        "id": "adf70a99-5cf3-4792-8780-c121658e530b",
        "extension": [ {
          "url": "http://fhir.openmrs.org/ext/patient/identifier#location",
          "valueReference": {
            "reference": "Location/a92f9952-1c4c-4659-893b-a6b56a16b1df",
            "type": "Location",
            "display": "Ngarua Health Centre"
          }
        } ],
        "use": "usual",
        "type": {
          "coding": [ {
            "code": "f85081e2-b4be-4e48-b3a4-7994b69bb101"
          } ],
          "text": "National Unique patient identifier"
        },
        "value": "0000007070000"
      } ],
      "active": true,
      "name": [ {
        "id": "b6f0ec7f-1d2c-11eb-8abc-0242e805c5c5",
        "family": "NGURE",
        "given": [ "NGURE", "NGURE" ]
      } ],
      "gender": "male",
      "birthDate": "1954-10-19",
      "deceasedBoolean": false,
      "address": [ {
        "id": "b6f1038e-1d2c-11eb-8abc-0242e805c5c5",
        "extension": [ {
          "url": "http://fhir.openmrs.org/ext/address",
          "extension": [ {
            "url": "http://fhir.openmrs.org/ext/address#address1",
            "valueString": "333 address1"
          }, {
            "url": "http://fhir.openmrs.org/ext/address#address2",
            "valueString": "kanyuka mdui family"
          }, {
            "url": "http://fhir.openmrs.org/ext/address#address4",
            "valueString": "Marmanet"
          }, {
            "url": "http://fhir.openmrs.org/ext/address#address5",
            "valueString": "Thigiu"
          }, {
            "url": "http://fhir.openmrs.org/ext/address#address6",
            "valueString": "Thigiu"
          } ]
        } ],
        "use": "home",
        "city": "Gatirima",
        "district": "Laikipia",
        "state": "Laikipia West"
      } ]
    },
    "request": {
      "method": "PUT",
      "url": "Patient/b6f0d594-1d2c-11eb-8abc-0242e805c5c5"
    }
  }, {
    "resource": {
      "resourceType": "Observation",
      "id": "77df5cac-1d2e-11eb-8abc-0242e805c5c5",
      "meta": {
        "versionId": "1604347898000",
        "lastUpdated": "2020-11-02T20:11:38.000+00:00"
      },
      "status": "final",
      "code": {
        "coding": [ {
          "code": "1193AAAAAAAAAAAAAAAAAAAAAAAAAAAAAAAA",
          "display": "CURRENT DRUGS USED"
        }, {
          "system": "https://cielterminology.org",
          "code": "1193"
        } ],
        "text": "CURRENT DRUGS USED"
      },
      "subject": {
        "reference": "Patient/b6f0d594-1d2c-11eb-8abc-0242e805c5c5",
        "type": "Patient",
        "display": "NGURE NGURE NGURE (OpenMRS ID: MGFW3T)"
      },
      "encounter": {
        "reference": "Encounter/77df1e58-1d2e-11eb-8abc-0242e805c5c5",
        "type": "Encounter"
      },
      "effectiveDateTime": "2018-02-20T00:00:00+00:00",
      "issued": "2020-11-02T20:11:38.000+00:00",
      "valueCodeableConcept": {
        "coding": [ {
          "code": "162561AAAAAAAAAAAAAAAAAAAAAAAAAAAAAA",
          "display": "Lamivudine / Lopinavir / Ritonavir / Zidovudine"
        }, {
          "system": "https://cielterminology.org",
          "code": "162561"
        } ],
        "text": "Lamivudine / Lopinavir / Ritonavir / Zidovudine"
      }
    },
    "request": {
      "method": "PUT",
      "url": "Observation/77df1e58-1d2e-11eb-8abc-0242e805c5c5"
    }
  }, {
    "resource": {
      "resourceType": "Observation",
      "id": "33f345e8-1d2e-11eb-8abc-0242e805c5c5",
      "meta": {
        "versionId": "1604347784000",
        "lastUpdated": "2020-11-02T20:09:44.000+00:00"
      },
      "status": "final",
      "code": {
        "coding": [ {
          "code": "5096AAAAAAAAAAAAAAAAAAAAAAAAAAAAAAAA",
          "display": "RETURN VISIT DATE"
        }, {
          "system": "https://cielterminology.org",
          "code": "5096"
        } ],
        "text": "RETURN VISIT DATE"
      },
      "subject": {
        "reference": "Patient/b6f0d594-1d2c-11eb-8abc-0242e805c5c5",
        "type": "Patient",
        "display": "NGURE NGURE NGURE (OpenMRS ID: MGFW3T)"
      },
      "encounter": {
        "reference": "Encounter/33f2c9aa-1d2e-11eb-8abc-0242e805c5c5",
        "type": "Encounter"
      },
      "effectiveDateTime": "2018-02-20T00:00:00+00:00",
      "issued": "2020-11-02T20:09:44.000+00:00",
      "valueDateTime": "2018-03-22T00:00:00+00:00"
    },
    "request": {
      "method": "PUT",
      "url": "Observation/33f2c9aa-1d2e-11eb-8abc-0242e805c5c5"
    }
  }, {
    "resource": {
      "resourceType": "Observation",
      "id": "33fb0105-1d2e-11eb-8abc-0242e805c5c5",
      "meta": {
        "versionId": "1604347784000",
        "lastUpdated": "2020-11-02T20:09:44.000+00:00"
      },
      "status": "final",
      "code": {
        "coding": [ {
          "code": "5096AAAAAAAAAAAAAAAAAAAAAAAAAAAAAAAA",
          "display": "RETURN VISIT DATE"
        }, {
          "system": "https://cielterminology.org",
          "code": "5096"
        } ],
        "text": "RETURN VISIT DATE"
      },
      "subject": {
        "reference": "Patient/b6f0d594-1d2c-11eb-8abc-0242e805c5c5",
        "type": "Patient",
        "display": "NGURE NGURE NGURE (OpenMRS ID: MGFW3T)"
      },
      "encounter": {
        "reference": "Encounter/33fa7abf-1d2e-11eb-8abc-0242e805c5c5",
        "type": "Encounter"
      },
      "effectiveDateTime": "2018-04-26T00:00:00+00:00",
      "issued": "2020-11-02T20:09:44.000+00:00",
      "valueDateTime": "2018-06-25T00:00:00+00:00"
    },
    "request": {
      "method": "PUT",
      "url": "Observation/33fa7abf-1d2e-11eb-8abc-0242e805c5c5"
    }
  }, {
    "resource": {
      "resourceType": "Observation",
      "id": "340a45a6-1d2e-11eb-8abc-0242e805c5c5",
      "meta": {
        "versionId": "1604347784000",
        "lastUpdated": "2020-11-02T20:09:44.000+00:00"
      },
      "status": "final",
      "code": {
        "coding": [ {
          "code": "5096AAAAAAAAAAAAAAAAAAAAAAAAAAAAAAAA",
          "display": "RETURN VISIT DATE"
        }, {
          "system": "https://cielterminology.org",
          "code": "5096"
        } ],
        "text": "RETURN VISIT DATE"
      },
      "subject": {
        "reference": "Patient/b6f0d594-1d2c-11eb-8abc-0242e805c5c5",
        "type": "Patient",
        "display": "NGURE NGURE NGURE (OpenMRS ID: MGFW3T)"
      },
      "encounter": {
        "reference": "Encounter/3409bf47-1d2e-11eb-8abc-0242e805c5c5",
        "type": "Encounter"
      },
      "effectiveDateTime": "2018-06-20T00:00:00+00:00",
      "issued": "2020-11-02T20:09:44.000+00:00",
      "valueDateTime": "2018-07-20T00:00:00+00:00"
    },
    "request": {
      "method": "PUT",
      "url": "Observation/3409bf47-1d2e-11eb-8abc-0242e805c5c5"
    }
  }, {
    "resource": {
      "resourceType": "Observation",
      "id": "3411d581-1d2e-11eb-8abc-0242e805c5c5",
      "meta": {
        "versionId": "1604347784000",
        "lastUpdated": "2020-11-02T20:09:44.000+00:00"
      },
      "status": "final",
      "code": {
        "coding": [ {
          "code": "5096AAAAAAAAAAAAAAAAAAAAAAAAAAAAAAAA",
          "display": "RETURN VISIT DATE"
        }, {
          "system": "https://cielterminology.org",
          "code": "5096"
        } ],
        "text": "RETURN VISIT DATE"
      },
      "subject": {
        "reference": "Patient/b6f0d594-1d2c-11eb-8abc-0242e805c5c5",
        "type": "Patient",
        "display": "NGURE NGURE NGURE (OpenMRS ID: MGFW3T)"
      },
      "encounter": {
        "reference": "Encounter/3411567d-1d2e-11eb-8abc-0242e805c5c5",
        "type": "Encounter"
      },
      "effectiveDateTime": "2018-10-11T00:00:00+00:00",
      "issued": "2020-11-02T20:09:44.000+00:00",
      "valueDateTime": "2018-11-14T00:00:00+00:00"
    },
    "request": {
      "method": "PUT",
      "url": "Observation/3411567d-1d2e-11eb-8abc-0242e805c5c5"
    }
  }, {
    "resource": {
      "resourceType": "Observation",
      "id": "341955de-1d2e-11eb-8abc-0242e805c5c5",
      "meta": {
        "versionId": "1604347784000",
        "lastUpdated": "2020-11-02T20:09:44.000+00:00"
      },
      "status": "final",
      "code": {
        "coding": [ {
          "code": "5096AAAAAAAAAAAAAAAAAAAAAAAAAAAAAAAA",
          "display": "RETURN VISIT DATE"
        }, {
          "system": "https://cielterminology.org",
          "code": "5096"
        } ],
        "text": "RETURN VISIT DATE"
      },
      "subject": {
        "reference": "Patient/b6f0d594-1d2c-11eb-8abc-0242e805c5c5",
        "type": "Patient",
        "display": "NGURE NGURE NGURE (OpenMRS ID: MGFW3T)"
      },
      "encounter": {
        "reference": "Encounter/3418eb0c-1d2e-11eb-8abc-0242e805c5c5",
        "type": "Encounter"
      },
      "effectiveDateTime": "2018-11-12T00:00:00+00:00",
      "issued": "2020-11-02T20:09:44.000+00:00",
      "valueDateTime": "2018-12-18T00:00:00+00:00"
    },
    "request": {
      "method": "PUT",
      "url": "Observation/3418eb0c-1d2e-11eb-8abc-0242e805c5c5"
    }
  }, {
    "resource": {
      "resourceType": "Observation",
      "id": "3423ced8-1d2e-11eb-8abc-0242e805c5c5",
      "meta": {
        "versionId": "1604347784000",
        "lastUpdated": "2020-11-02T20:09:44.000+00:00"
      },
      "status": "final",
      "code": {
        "coding": [ {
          "code": "5096AAAAAAAAAAAAAAAAAAAAAAAAAAAAAAAA",
          "display": "RETURN VISIT DATE"
        }, {
          "system": "https://cielterminology.org",
          "code": "5096"
        } ],
        "text": "RETURN VISIT DATE"
      },
      "subject": {
        "reference": "Patient/b6f0d594-1d2c-11eb-8abc-0242e805c5c5",
        "type": "Patient",
        "display": "NGURE NGURE NGURE (OpenMRS ID: MGFW3T)"
      },
      "encounter": {
        "reference": "Encounter/34233ead-1d2e-11eb-8abc-0242e805c5c5",
        "type": "Encounter"
      },
      "effectiveDateTime": "2018-12-18T00:00:00+00:00",
      "issued": "2020-11-02T20:09:44.000+00:00",
      "valueDateTime": "2019-01-17T00:00:00+00:00"
    },
    "request": {
      "method": "PUT",
      "url": "Observation/34233ead-1d2e-11eb-8abc-0242e805c5c5"
    }
  }, {
    "resource": {
      "resourceType": "Observation",
      "id": "342b53f9-1d2e-11eb-8abc-0242e805c5c5",
      "meta": {
        "versionId": "1604347784000",
        "lastUpdated": "2020-11-02T20:09:44.000+00:00"
      },
      "status": "final",
      "code": {
        "coding": [ {
          "code": "5096AAAAAAAAAAAAAAAAAAAAAAAAAAAAAAAA",
          "display": "RETURN VISIT DATE"
        }, {
          "system": "https://cielterminology.org",
          "code": "5096"
        } ],
        "text": "RETURN VISIT DATE"
      },
      "subject": {
        "reference": "Patient/b6f0d594-1d2c-11eb-8abc-0242e805c5c5",
        "type": "Patient",
        "display": "NGURE NGURE NGURE (OpenMRS ID: MGFW3T)"
      },
      "encounter": {
        "reference": "Encounter/342ae090-1d2e-11eb-8abc-0242e805c5c5",
        "type": "Encounter"
      },
      "effectiveDateTime": "2019-01-17T00:00:00+00:00",
      "issued": "2020-11-02T20:09:44.000+00:00",
      "valueDateTime": "2019-05-17T00:00:00+00:00"
    },
    "request": {
      "method": "PUT",
      "url": "Observation/342ae090-1d2e-11eb-8abc-0242e805c5c5"
    }
  }, {
    "resource": {
      "resourceType": "Observation",
      "id": "3436bf73-1d2e-11eb-8abc-0242e805c5c5",
      "meta": {
        "versionId": "1604347784000",
        "lastUpdated": "2020-11-02T20:09:44.000+00:00"
      },
      "status": "final",
      "code": {
        "coding": [ {
          "code": "5096AAAAAAAAAAAAAAAAAAAAAAAAAAAAAAAA",
          "display": "RETURN VISIT DATE"
        }, {
          "system": "https://cielterminology.org",
          "code": "5096"
        } ],
        "text": "RETURN VISIT DATE"
      },
      "subject": {
        "reference": "Patient/b6f0d594-1d2c-11eb-8abc-0242e805c5c5",
        "type": "Patient",
        "display": "NGURE NGURE NGURE (OpenMRS ID: MGFW3T)"
      },
      "encounter": {
        "reference": "Encounter/343679a6-1d2e-11eb-8abc-0242e805c5c5",
        "type": "Encounter"
      },
      "effectiveDateTime": "2019-05-09T00:00:00+00:00",
      "issued": "2020-11-02T20:09:44.000+00:00",
      "valueDateTime": "2019-06-08T00:00:00+00:00"
    },
    "request": {
      "method": "PUT",
      "url": "Observation/343679a6-1d2e-11eb-8abc-0242e805c5c5"
    }
  }, {
    "resource": {
      "resourceType": "Observation",
      "id": "343e3f6b-1d2e-11eb-8abc-0242e805c5c5",
      "meta": {
        "versionId": "1604347784000",
        "lastUpdated": "2020-11-02T20:09:44.000+00:00"
      },
      "status": "final",
      "code": {
        "coding": [ {
          "code": "5096AAAAAAAAAAAAAAAAAAAAAAAAAAAAAAAA",
          "display": "RETURN VISIT DATE"
        }, {
          "system": "https://cielterminology.org",
          "code": "5096"
        } ],
        "text": "RETURN VISIT DATE"
      },
      "subject": {
        "reference": "Patient/b6f0d594-1d2c-11eb-8abc-0242e805c5c5",
        "type": "Patient",
        "display": "NGURE NGURE NGURE (OpenMRS ID: MGFW3T)"
      },
      "encounter": {
        "reference": "Encounter/343e15d6-1d2e-11eb-8abc-0242e805c5c5",
        "type": "Encounter"
      },
      "effectiveDateTime": "2019-12-17T00:00:00+00:00",
      "issued": "2020-11-02T20:09:44.000+00:00",
      "valueDateTime": "2020-06-14T00:00:00+00:00"
    },
    "request": {
      "method": "PUT",
      "url": "Observation/343e15d6-1d2e-11eb-8abc-0242e805c5c5"
    }
  }, {
    "resource": {
      "resourceType": "Observation",
      "id": "344a7256-1d2e-11eb-8abc-0242e805c5c5",
      "meta": {
        "versionId": "1604347784000",
        "lastUpdated": "2020-11-02T20:09:44.000+00:00"
      },
      "status": "final",
      "code": {
        "coding": [ {
          "code": "5096AAAAAAAAAAAAAAAAAAAAAAAAAAAAAAAA",
          "display": "RETURN VISIT DATE"
        }, {
          "system": "https://cielterminology.org",
          "code": "5096"
        } ],
        "text": "RETURN VISIT DATE"
      },
      "subject": {
        "reference": "Patient/b6f0d594-1d2c-11eb-8abc-0242e805c5c5",
        "type": "Patient",
        "display": "NGURE NGURE NGURE (OpenMRS ID: MGFW3T)"
      },
      "encounter": {
        "reference": "Encounter/34497454-1d2e-11eb-8abc-0242e805c5c5",
        "type": "Encounter"
      },
      "effectiveDateTime": "2020-06-24T00:00:00+00:00",
      "issued": "2020-11-02T20:09:44.000+00:00",
      "valueDateTime": "2020-12-11T00:00:00+00:00"
    },
    "request": {
      "method": "PUT",
      "url": "Observation/34497454-1d2e-11eb-8abc-0242e805c5c5"
    }
  }, {
    "resource": {
      "resourceType": "Observation",
      "id": "deb6c7c4-45c9-42f8-b11a-9ad9955db3fb",
      "meta": {
        "versionId": "1606230204000",
        "lastUpdated": "2020-11-24T15:03:24.000+00:00"
      },
      "status": "final",
      "code": {
        "coding": [ {
          "code": "5096AAAAAAAAAAAAAAAAAAAAAAAAAAAAAAAA",
          "display": "RETURN VISIT DATE"
        }, {
          "system": "https://cielterminology.org",
          "code": "5096"
        } ],
        "text": "RETURN VISIT DATE"
      },
      "subject": {
        "reference": "Patient/b6f0d594-1d2c-11eb-8abc-0242e805c5c5",
        "type": "Patient",
        "display": "NGURE NGURE NGURE (OpenMRS ID: MGFW3T)"
      },
      "encounter": {
        "reference": "Encounter/6fc23dcd-7599-4817-bc15-2c0322004a6a",
        "type": "Encounter"
      },
      "effectiveDateTime": "2020-11-24T12:46:30+00:00",
      "issued": "2020-11-24T15:03:24.000+00:00",
      "valueDateTime": "2021-02-25T00:00:00+00:00"
    },
    "request": {
      "method": "PUT",
      "url": "Observation/6fc23dcd-7599-4817-bc15-2c0322004a6a"
    }
  }, {
    "resource": {
      "resourceType": "Observation",
      "id": "e4a0c4f2-b3e0-4183-9358-bfedc374e06e",
      "meta": {
        "versionId": "1616667530000",
        "lastUpdated": "2021-03-25T10:18:50.000+00:00"
      },
      "status": "final",
      "code": {
        "coding": [ {
          "code": "5096AAAAAAAAAAAAAAAAAAAAAAAAAAAAAAAA",
          "display": "RETURN VISIT DATE"
        }, {
          "system": "https://cielterminology.org",
          "code": "5096"
        } ],
        "text": "RETURN VISIT DATE"
      },
      "subject": {
        "reference": "Patient/b6f0d594-1d2c-11eb-8abc-0242e805c5c5",
        "type": "Patient",
        "display": "NGURE NGURE NGURE (OpenMRS ID: MGFW3T)"
      },
      "encounter": {
        "reference": "Encounter/e6ca7cf1-ae92-447f-ace4-23d692b06359",
        "type": "Encounter"
      },
      "effectiveDateTime": "2021-03-25T10:15:19+00:00",
      "issued": "2021-03-25T10:18:50.000+00:00",
      "valueDateTime": "2021-04-23T00:00:00+00:00"
    },
    "request": {
      "method": "PUT",
      "url": "Observation/e6ca7cf1-ae92-447f-ace4-23d692b06359"
    }
  }, {
    "resource": {
      "resourceType": "Observation",
      "id": "b988b506-eb7f-4399-8182-0c2fcabf05ed",
      "meta": {
        "versionId": "1620311957000",
        "lastUpdated": "2021-05-06T14:39:17.000+00:00"
      },
      "status": "final",
      "code": {
        "coding": [ {
          "code": "5096AAAAAAAAAAAAAAAAAAAAAAAAAAAAAAAA",
          "display": "RETURN VISIT DATE"
        }, {
          "system": "https://cielterminology.org",
          "code": "5096"
        } ],
        "text": "RETURN VISIT DATE"
      },
      "subject": {
        "reference": "Patient/b6f0d594-1d2c-11eb-8abc-0242e805c5c5",
        "type": "Patient",
        "display": "NGURE NGURE NGURE (OpenMRS ID: MGFW3T)"
      },
      "encounter": {
        "reference": "Encounter/fd59c19b-24eb-47d8-a7f9-fde494041dac",
        "type": "Encounter"
      },
      "effectiveDateTime": "2021-05-06T14:37:16+00:00",
      "issued": "2021-05-06T14:39:17.000+00:00",
      "valueDateTime": "2021-07-07T00:00:00+00:00"
    },
    "request": {
      "method": "PUT",
      "url": "Observation/fd59c19b-24eb-47d8-a7f9-fde494041dac"
    }
  }, {
    "resource": {
      "resourceType": "Observation",
      "id": "d6f0594e-c620-4914-a36d-9f94252a9ece",
      "meta": {
        "versionId": "1625754266000",
        "lastUpdated": "2021-07-08T14:24:26.000+00:00"
      },
      "status": "final",
      "code": {
        "coding": [ {
          "code": "5096AAAAAAAAAAAAAAAAAAAAAAAAAAAAAAAA",
          "display": "RETURN VISIT DATE"
        }, {
          "system": "https://cielterminology.org",
          "code": "5096"
        } ],
        "text": "RETURN VISIT DATE"
      },
      "subject": {
        "reference": "Patient/b6f0d594-1d2c-11eb-8abc-0242e805c5c5",
        "type": "Patient",
        "display": "NGURE NGURE NGURE (OpenMRS ID: MGFW3T)"
      },
      "encounter": {
        "reference": "Encounter/a4e6ba60-1051-45c1-b808-fed02b208a88",
        "type": "Encounter"
      },
      "effectiveDateTime": "2021-07-08T14:23:38+00:00",
      "issued": "2021-07-08T14:24:26.000+00:00",
      "valueDateTime": "2021-09-09T00:00:00+00:00"
    },
    "request": {
      "method": "PUT",
      "url": "Observation/a4e6ba60-1051-45c1-b808-fed02b208a88"
    }
  }, {
    "resource": {
      "resourceType": "Observation",
      "id": "56af1030-cfd4-4f7a-9185-649f0b6a0c58",
      "meta": {
        "versionId": "1638010262000",
        "lastUpdated": "2021-11-27T10:51:02.000+00:00"
      },
      "status": "final",
      "code": {
        "coding": [ {
          "code": "5096AAAAAAAAAAAAAAAAAAAAAAAAAAAAAAAA",
          "display": "RETURN VISIT DATE"
        }, {
          "system": "https://cielterminology.org",
          "code": "5096"
        } ],
        "text": "RETURN VISIT DATE"
      },
      "subject": {
        "reference": "Patient/b6f0d594-1d2c-11eb-8abc-0242e805c5c5",
        "type": "Patient",
        "display": "NGURE NGURE NGURE (OpenMRS ID: MGFW3T)"
      },
      "encounter": {
        "reference": "Encounter/c425f722-ef4d-4a89-88cd-d88fe59b7535",
        "type": "Encounter"
      },
      "effectiveDateTime": "2021-11-27T10:50:42+00:00",
      "issued": "2021-11-27T10:51:02.000+00:00",
      "valueDateTime": "2022-02-22T00:00:00+00:00"
    },
    "request": {
      "method": "PUT",
      "url": "Observation/c425f722-ef4d-4a89-88cd-d88fe59b7535"
    }
  }, {
    "resource": {
      "resourceType": "Observation",
      "id": "30acd1d7-8f51-43fe-9e79-86af42b2d556",
      "meta": {
        "versionId": "1646131688000",
        "lastUpdated": "2022-03-01T10:48:08.000+00:00"
      },
      "status": "final",
      "code": {
        "coding": [ {
          "code": "5096AAAAAAAAAAAAAAAAAAAAAAAAAAAAAAAA",
          "display": "RETURN VISIT DATE"
        }, {
          "system": "https://cielterminology.org",
          "code": "5096"
        } ],
        "text": "RETURN VISIT DATE"
      },
      "subject": {
        "reference": "Patient/b6f0d594-1d2c-11eb-8abc-0242e805c5c5",
        "type": "Patient",
        "display": "NGURE NGURE NGURE (OpenMRS ID: MGFW3T)"
      },
      "encounter": {
        "reference": "Encounter/184843cc-7ebf-4ea9-b071-e1308403a85a",
        "type": "Encounter"
      },
      "effectiveDateTime": "2022-02-28T10:47:00+00:00",
      "issued": "2022-03-01T10:48:08.000+00:00",
      "valueDateTime": "2022-06-23T00:00:00+00:00"
    },
    "request": {
      "method": "PUT",
      "url": "Observation/184843cc-7ebf-4ea9-b071-e1308403a85a"
    }
  }, {
    "resource": {
      "resourceType": "Observation",
      "id": "801cd984-590d-4139-8005-de17f6dc651d",
      "meta": {
        "versionId": "1655988528000",
        "lastUpdated": "2022-06-23T12:48:48.000+00:00"
      },
      "status": "final",
      "code": {
        "coding": [ {
          "code": "5096AAAAAAAAAAAAAAAAAAAAAAAAAAAAAAAA",
          "display": "RETURN VISIT DATE"
        }, {
          "system": "https://cielterminology.org",
          "code": "5096"
        } ],
        "text": "RETURN VISIT DATE"
      },
      "subject": {
        "reference": "Patient/b6f0d594-1d2c-11eb-8abc-0242e805c5c5",
        "type": "Patient",
        "display": "NGURE NGURE NGURE (OpenMRS ID: MGFW3T)"
      },
      "encounter": {
        "reference": "Encounter/18f02111-1dee-4b16-871c-edbd9acd647b",
        "type": "Encounter"
      },
      "effectiveDateTime": "2022-06-23T12:46:35+00:00",
      "issued": "2022-06-23T12:48:48.000+00:00",
      "valueDateTime": "2022-11-22T00:00:00+00:00"
    },
    "request": {
      "method": "PUT",
      "url": "Observation/18f02111-1dee-4b16-871c-edbd9acd647b"
    }
  }, {
    "resource": {
      "resourceType": "Observation",
      "id": "b92b1185-011c-4848-aa43-c935ae2371f1",
      "meta": {
        "versionId": "1669293598000",
        "lastUpdated": "2022-11-24T12:39:58.000+00:00"
      },
      "status": "final",
      "code": {
        "coding": [ {
          "code": "5096AAAAAAAAAAAAAAAAAAAAAAAAAAAAAAAA",
          "display": "RETURN VISIT DATE"
        }, {
          "system": "https://cielterminology.org",
          "code": "5096"
        } ],
        "text": "RETURN VISIT DATE"
      },
      "subject": {
        "reference": "Patient/b6f0d594-1d2c-11eb-8abc-0242e805c5c5",
        "type": "Patient",
        "display": "NGURE NGURE NGURE (OpenMRS ID: MGFW3T)"
      },
      "encounter": {
        "reference": "Encounter/9c2a06b3-612d-4c28-ad2d-040945d90df1",
        "type": "Encounter"
      },
      "effectiveDateTime": "2022-11-22T12:38:00+00:00",
      "issued": "2022-11-24T12:39:58.000+00:00",
      "valueDateTime": "2023-03-16T00:00:00+00:00"
    },
    "request": {
      "method": "PUT",
      "url": "Observation/9c2a06b3-612d-4c28-ad2d-040945d90df1"
    }
  }, {
    "resource": {
      "resourceType": "Observation",
      "id": "e3e9a305-71c8-43e1-9785-96d9f92e1978",
      "meta": {
        "versionId": "1679493337000",
        "lastUpdated": "2023-03-22T13:55:37.000+00:00"
      },
      "status": "final",
      "code": {
        "coding": [ {
          "code": "5096AAAAAAAAAAAAAAAAAAAAAAAAAAAAAAAA",
          "display": "RETURN VISIT DATE"
        }, {
          "system": "https://cielterminology.org",
          "code": "5096"
        } ],
        "text": "RETURN VISIT DATE"
      },
      "subject": {
        "reference": "Patient/b6f0d594-1d2c-11eb-8abc-0242e805c5c5",
        "type": "Patient",
        "display": "NGURE NGURE NGURE (OpenMRS ID: MGFW3T)"
      },
      "encounter": {
        "reference": "Encounter/39fb6751-a24f-4ea1-ae9c-0876adb1f340",
        "type": "Encounter"
      },
      "effectiveDateTime": "2023-03-16T13:54:00+00:00",
      "issued": "2023-03-22T13:55:37.000+00:00",
      "valueDateTime": "2023-09-19T00:00:00+00:00"
    },
    "request": {
      "method": "PUT",
      "url": "Observation/39fb6751-a24f-4ea1-ae9c-0876adb1f340"
    }
  }, {
    "resource": {
      "resourceType": "Observation",
      "id": "a8d83655-d2f1-4c5c-9443-57a033948a92",
      "meta": {
        "versionId": "1695204809000",
        "lastUpdated": "2023-09-20T10:13:29.000+00:00"
      },
      "status": "final",
      "code": {
        "coding": [ {
          "code": "5096AAAAAAAAAAAAAAAAAAAAAAAAAAAAAAAA",
          "display": "RETURN VISIT DATE"
        }, {
          "system": "https://cielterminology.org",
          "code": "5096"
        } ],
        "text": "RETURN VISIT DATE"
      },
      "subject": {
        "reference": "Patient/b6f0d594-1d2c-11eb-8abc-0242e805c5c5",
        "type": "Patient",
        "display": "NGURE NGURE NGURE (OpenMRS ID: MGFW3T)"
      },
      "encounter": {
        "reference": "Encounter/018d3c45-a124-4e92-8bc3-73cbb6611501",
        "type": "Encounter"
      },
      "effectiveDateTime": "2023-09-19T10:12:00+00:00",
      "issued": "2023-09-20T10:13:29.000+00:00",
      "valueDateTime": "2024-01-16T00:00:00+00:00"
    },
    "request": {
      "method": "PUT",
      "url": "Observation/018d3c45-a124-4e92-8bc3-73cbb6611501"
    }
  }, {
    "resource": {
      "resourceType": "Patient",
      "id": "b703b01e-1d2c-11eb-8abc-0242e805c5c5",
      "meta": {
        "versionId": "1604347145000",
        "lastUpdated": "2020-11-02T19:59:05.000+00:00"
      },
      "identifier": [ {
        "id": "b717d31c-1d2c-11eb-8abc-0242e805c5c5",
        "extension": [ {
          "url": "http://fhir.openmrs.org/ext/patient/identifier#location",
          "valueReference": {
            "reference": "Location/a92f9952-1c4c-4659-893b-a6b56a16b1df",
            "type": "Location",
            "display": "Ngarua Health Centre"
          }
        } ],
        "use": "official",
        "type": {
          "coding": [ {
            "code": "dfacd928-0370-4315-99d7-6ec1c9f7ae76"
          } ],
          "text": "OpenMRS ID"
        },
        "value": "MGFW4P"
      }, {
        "id": "b704384b-1d2c-11eb-8abc-0242e805c5c5",
        "extension": [ {
          "url": "http://fhir.openmrs.org/ext/patient/identifier#location",
          "valueReference": {
            "reference": "Location/a92f9952-1c4c-4659-893b-a6b56a16b1df",
            "type": "Location",
            "display": "Ngarua Health Centre"
          }
        } ],
        "use": "usual",
        "type": {
          "coding": [ {
            "code": "05ee9cf4-7242-4a17-b4d4-00f707265c8a"
          } ],
          "text": "Unique Patient Number"
        },
        "value": "1533900464"
      } ],
      "active": true,
      "name": [ {
        "id": "b703d5cd-1d2c-11eb-8abc-0242e805c5c5",
        "family": "-TERESIA",
        "given": [ "-TERESIA", "-TERESIA" ]
      } ],
      "gender": "female",
      "birthDate": "2003-08-07",
      "deceasedBoolean": false,
      "address": [ {
        "id": "b703fc98-1d2c-11eb-8abc-0242e805c5c5",
        "extension": [ {
          "url": "http://fhir.openmrs.org/ext/address",
          "extension": [ {
            "url": "http://fhir.openmrs.org/ext/address#address1",
            "valueString": "334 address1"
          }, {
            "url": "http://fhir.openmrs.org/ext/address#address2",
            "valueString": "KUNDARILLA"
          }, {
            "url": "http://fhir.openmrs.org/ext/address#address4",
            "valueString": "MARMANET"
          } ]
        } ],
        "use": "old",
        "district": "LAIKIPIA",
        "state": "LAIKIPIA WEST"
      } ]
    },
    "request": {
      "method": "PUT",
      "url": "Patient/b703b01e-1d2c-11eb-8abc-0242e805c5c5"
    }
  }, {
    "resource": {
      "resourceType": "Observation",
      "id": "77ec1481-1d2e-11eb-8abc-0242e805c5c5",
      "meta": {
        "versionId": "1604347898000",
        "lastUpdated": "2020-11-02T20:11:38.000+00:00"
      },
      "status": "final",
      "code": {
        "coding": [ {
          "code": "1193AAAAAAAAAAAAAAAAAAAAAAAAAAAAAAAA",
          "display": "CURRENT DRUGS USED"
        }, {
          "system": "https://cielterminology.org",
          "code": "1193"
        } ],
        "text": "CURRENT DRUGS USED"
      },
      "subject": {
        "reference": "Patient/b703b01e-1d2c-11eb-8abc-0242e805c5c5",
        "type": "Patient",
        "display": "-TERESIA -TERESIA -TERESIA (OpenMRS ID: MGFW4P)"
      },
      "encounter": {
        "reference": "Encounter/77ebd31f-1d2e-11eb-8abc-0242e805c5c5",
        "type": "Encounter"
      },
      "effectiveDateTime": "2020-04-01T00:00:00+00:00",
      "issued": "2020-11-02T20:11:38.000+00:00",
      "valueCodeableConcept": {
        "coding": [ {
          "code": "164505AAAAAAAAAAAAAAAAAAAAAAAAAAAAAA",
          "display": "Lamivudine / Efavirenz / Tenofovir"
        }, {
          "system": "https://cielterminology.org",
          "code": "164505"
        } ],
        "text": "Lamivudine / Efavirenz / Tenofovir"
      }
    },
    "request": {
      "method": "PUT",
      "url": "Observation/77ebd31f-1d2e-11eb-8abc-0242e805c5c5"
    }
  }, {
    "resource": {
      "resourceType": "Observation",
      "id": "3451d063-1d2e-11eb-8abc-0242e805c5c5",
      "meta": {
        "versionId": "1604347784000",
        "lastUpdated": "2020-11-02T20:09:44.000+00:00"
      },
      "status": "final",
      "code": {
        "coding": [ {
          "code": "5096AAAAAAAAAAAAAAAAAAAAAAAAAAAAAAAA",
          "display": "RETURN VISIT DATE"
        }, {
          "system": "https://cielterminology.org",
          "code": "5096"
        } ],
        "text": "RETURN VISIT DATE"
      },
      "subject": {
        "reference": "Patient/b703b01e-1d2c-11eb-8abc-0242e805c5c5",
        "type": "Patient",
        "display": "-TERESIA -TERESIA -TERESIA (OpenMRS ID: MGFW4P)"
      },
      "encounter": {
        "reference": "Encounter/3450f72b-1d2e-11eb-8abc-0242e805c5c5",
        "type": "Encounter"
      },
      "effectiveDateTime": "2020-04-01T00:00:00+00:00",
      "issued": "2020-11-02T20:09:44.000+00:00",
      "valueDateTime": "2020-08-29T00:00:00+00:00"
    },
    "request": {
      "method": "PUT",
      "url": "Observation/3450f72b-1d2e-11eb-8abc-0242e805c5c5"
    }
  }, {
    "resource": {
      "resourceType": "Observation",
      "id": "345cad5f-1d2e-11eb-8abc-0242e805c5c5",
      "meta": {
        "versionId": "1604347784000",
        "lastUpdated": "2020-11-02T20:09:44.000+00:00"
      },
      "status": "final",
      "code": {
        "coding": [ {
          "code": "5096AAAAAAAAAAAAAAAAAAAAAAAAAAAAAAAA",
          "display": "RETURN VISIT DATE"
        }, {
          "system": "https://cielterminology.org",
          "code": "5096"
        } ],
        "text": "RETURN VISIT DATE"
      },
      "subject": {
        "reference": "Patient/b703b01e-1d2c-11eb-8abc-0242e805c5c5",
        "type": "Patient",
        "display": "-TERESIA -TERESIA -TERESIA (OpenMRS ID: MGFW4P)"
      },
      "encounter": {
        "reference": "Encounter/345c8b85-1d2e-11eb-8abc-0242e805c5c5",
        "type": "Encounter"
      },
      "effectiveDateTime": "2020-10-02T00:00:00+00:00",
      "issued": "2020-11-02T20:09:44.000+00:00",
      "valueDateTime": "2021-01-10T00:00:00+00:00"
    },
    "request": {
      "method": "PUT",
      "url": "Observation/345c8b85-1d2e-11eb-8abc-0242e805c5c5"
    }
  }, {
    "resource": {
      "resourceType": "Observation",
      "id": "a0aca3e2-d4a5-4b20-a63c-4b72c990a669",
      "meta": {
        "versionId": "1605712797000",
        "lastUpdated": "2020-11-18T15:19:57.000+00:00"
      },
      "status": "final",
      "code": {
        "coding": [ {
          "code": "5096AAAAAAAAAAAAAAAAAAAAAAAAAAAAAAAA",
          "display": "RETURN VISIT DATE"
        }, {
          "system": "https://cielterminology.org",
          "code": "5096"
        } ],
        "text": "RETURN VISIT DATE"
      },
      "subject": {
        "reference": "Patient/b703b01e-1d2c-11eb-8abc-0242e805c5c5",
        "type": "Patient",
        "display": "-TERESIA -TERESIA -TERESIA (OpenMRS ID: MGFW4P)"
      },
      "encounter": {
        "reference": "Encounter/7defedfc-ba21-4f2b-8e1d-29cf6093f1f1",
        "type": "Encounter"
      },
      "effectiveDateTime": "2020-11-18T15:17:09+00:00",
      "issued": "2020-11-18T15:19:57.000+00:00",
      "valueDateTime": "2020-12-16T00:00:00+00:00"
    },
    "request": {
      "method": "PUT",
      "url": "Observation/7defedfc-ba21-4f2b-8e1d-29cf6093f1f1"
    }
  }, {
    "resource": {
      "resourceType": "Observation",
      "id": "99437be4-2161-42d3-b764-4e87ab88315c",
      "meta": {
        "versionId": "1608194390000",
        "lastUpdated": "2020-12-17T08:39:50.000+00:00"
      },
      "status": "final",
      "code": {
        "coding": [ {
          "code": "5096AAAAAAAAAAAAAAAAAAAAAAAAAAAAAAAA",
          "display": "RETURN VISIT DATE"
        }, {
          "system": "https://cielterminology.org",
          "code": "5096"
        } ],
        "text": "RETURN VISIT DATE"
      },
      "subject": {
        "reference": "Patient/b703b01e-1d2c-11eb-8abc-0242e805c5c5",
        "type": "Patient",
        "display": "-TERESIA -TERESIA -TERESIA (OpenMRS ID: MGFW4P)"
      },
      "encounter": {
        "reference": "Encounter/ece9ab80-f6aa-40da-af2d-16b766b1bd4c",
        "type": "Encounter"
      },
      "effectiveDateTime": "2020-12-16T15:44:32+00:00",
      "issued": "2020-12-17T08:39:50.000+00:00",
      "valueDateTime": "2021-01-15T00:00:00+00:00"
    },
    "request": {
      "method": "PUT",
      "url": "Observation/ece9ab80-f6aa-40da-af2d-16b766b1bd4c"
    }
  }, {
    "resource": {
      "resourceType": "Observation",
      "id": "95be5e24-a773-4455-89e9-a36b50d1f032",
      "meta": {
        "versionId": "1614682834000",
        "lastUpdated": "2021-03-02T11:00:34.000+00:00"
      },
      "status": "final",
      "code": {
        "coding": [ {
          "code": "5096AAAAAAAAAAAAAAAAAAAAAAAAAAAAAAAA",
          "display": "RETURN VISIT DATE"
        }, {
          "system": "https://cielterminology.org",
          "code": "5096"
        } ],
        "text": "RETURN VISIT DATE"
      },
      "subject": {
        "reference": "Patient/b703b01e-1d2c-11eb-8abc-0242e805c5c5",
        "type": "Patient",
        "display": "-TERESIA -TERESIA -TERESIA (OpenMRS ID: MGFW4P)"
      },
      "encounter": {
        "reference": "Encounter/24301157-b7e2-4d9f-bd37-9d4360c6ae3c",
        "type": "Encounter"
      },
      "effectiveDateTime": "2021-02-23T10:59:00+00:00",
      "issued": "2021-03-02T11:00:34.000+00:00",
      "valueDateTime": "2021-05-20T00:00:00+00:00"
    },
    "request": {
      "method": "PUT",
      "url": "Observation/24301157-b7e2-4d9f-bd37-9d4360c6ae3c"
    }
  }, {
    "resource": {
      "resourceType": "Observation",
      "id": "8956272e-0a73-4106-9ca5-01a0a7a6d1ce",
      "meta": {
        "versionId": "1620312517000",
        "lastUpdated": "2021-05-06T14:48:37.000+00:00"
      },
      "status": "final",
      "code": {
        "coding": [ {
          "code": "5096AAAAAAAAAAAAAAAAAAAAAAAAAAAAAAAA",
          "display": "RETURN VISIT DATE"
        }, {
          "system": "https://cielterminology.org",
          "code": "5096"
        } ],
        "text": "RETURN VISIT DATE"
      },
      "subject": {
        "reference": "Patient/b703b01e-1d2c-11eb-8abc-0242e805c5c5",
        "type": "Patient",
        "display": "-TERESIA -TERESIA -TERESIA (OpenMRS ID: MGFW4P)"
      },
      "encounter": {
        "reference": "Encounter/5f13bac1-be26-4b7d-a9c5-3475615f9c19",
        "type": "Encounter"
      },
      "effectiveDateTime": "2021-05-06T14:48:02+00:00",
      "issued": "2021-05-06T14:48:37.000+00:00",
      "valueDateTime": "2021-06-02T00:00:00+00:00"
    },
    "request": {
      "method": "PUT",
      "url": "Observation/5f13bac1-be26-4b7d-a9c5-3475615f9c19"
    }
  }, {
    "resource": {
      "resourceType": "Observation",
      "id": "cf7c6bfe-f521-4e6d-8eb1-7b4b8c409745",
      "meta": {
        "versionId": "1622812064000",
        "lastUpdated": "2021-06-04T13:07:44.000+00:00"
      },
      "status": "final",
      "code": {
        "coding": [ {
          "code": "5096AAAAAAAAAAAAAAAAAAAAAAAAAAAAAAAA",
          "display": "RETURN VISIT DATE"
        }, {
          "system": "https://cielterminology.org",
          "code": "5096"
        } ],
        "text": "RETURN VISIT DATE"
      },
      "subject": {
        "reference": "Patient/b703b01e-1d2c-11eb-8abc-0242e805c5c5",
        "type": "Patient",
        "display": "-TERESIA -TERESIA -TERESIA (OpenMRS ID: MGFW4P)"
      },
      "encounter": {
        "reference": "Encounter/20bd3135-2b4e-4b5c-8176-4711439bdef4",
        "type": "Encounter"
      },
      "effectiveDateTime": "2021-06-04T13:07:14+00:00",
      "issued": "2021-06-04T13:07:44.000+00:00",
      "valueDateTime": "2021-07-01T00:00:00+00:00"
    },
    "request": {
      "method": "PUT",
      "url": "Observation/20bd3135-2b4e-4b5c-8176-4711439bdef4"
    }
  }, {
    "resource": {
      "resourceType": "Observation",
      "id": "e4bf15ce-d1f1-464a-a9c6-1de6819367db",
      "meta": {
        "versionId": "1625153585000",
        "lastUpdated": "2021-07-01T15:33:05.000+00:00"
      },
      "status": "final",
      "code": {
        "coding": [ {
          "code": "5096AAAAAAAAAAAAAAAAAAAAAAAAAAAAAAAA",
          "display": "RETURN VISIT DATE"
        }, {
          "system": "https://cielterminology.org",
          "code": "5096"
        } ],
        "text": "RETURN VISIT DATE"
      },
      "subject": {
        "reference": "Patient/b703b01e-1d2c-11eb-8abc-0242e805c5c5",
        "type": "Patient",
        "display": "-TERESIA -TERESIA -TERESIA (OpenMRS ID: MGFW4P)"
      },
      "encounter": {
        "reference": "Encounter/e18b6dd4-bd69-47a6-b43b-b5b76be55652",
        "type": "Encounter"
      },
      "effectiveDateTime": "2021-07-01T15:31:34+00:00",
      "issued": "2021-07-01T15:33:05.000+00:00",
      "valueDateTime": "2021-08-12T00:00:00+00:00"
    },
    "request": {
      "method": "PUT",
      "url": "Observation/e18b6dd4-bd69-47a6-b43b-b5b76be55652"
    }
  }, {
    "resource": {
      "resourceType": "Observation",
      "id": "9a12be5d-ad2b-4ea1-a235-322a47c0cece",
      "meta": {
        "versionId": "1629208164000",
        "lastUpdated": "2021-08-17T13:49:24.000+00:00"
      },
      "status": "final",
      "code": {
        "coding": [ {
          "code": "5096AAAAAAAAAAAAAAAAAAAAAAAAAAAAAAAA",
          "display": "RETURN VISIT DATE"
        }, {
          "system": "https://cielterminology.org",
          "code": "5096"
        } ],
        "text": "RETURN VISIT DATE"
      },
      "subject": {
        "reference": "Patient/b703b01e-1d2c-11eb-8abc-0242e805c5c5",
        "type": "Patient",
        "display": "-TERESIA -TERESIA -TERESIA (OpenMRS ID: MGFW4P)"
      },
      "encounter": {
        "reference": "Encounter/51bebb50-842c-4b4b-beaa-04782ff4f41c",
        "type": "Encounter"
      },
      "effectiveDateTime": "2021-08-13T12:38:07+00:00",
      "issued": "2021-08-17T13:49:24.000+00:00",
      "valueDateTime": "2021-09-08T00:00:00+00:00"
    },
    "request": {
      "method": "PUT",
      "url": "Observation/51bebb50-842c-4b4b-beaa-04782ff4f41c"
    }
  }, {
    "resource": {
      "resourceType": "Observation",
      "id": "dcc90754-c211-4b62-aa57-61f1b70ae30c",
      "meta": {
        "versionId": "1633429316000",
        "lastUpdated": "2021-10-05T10:21:56.000+00:00"
      },
      "status": "final",
      "code": {
        "coding": [ {
          "code": "5096AAAAAAAAAAAAAAAAAAAAAAAAAAAAAAAA",
          "display": "RETURN VISIT DATE"
        }, {
          "system": "https://cielterminology.org",
          "code": "5096"
        } ],
        "text": "RETURN VISIT DATE"
      },
      "subject": {
        "reference": "Patient/b703b01e-1d2c-11eb-8abc-0242e805c5c5",
        "type": "Patient",
        "display": "-TERESIA -TERESIA -TERESIA (OpenMRS ID: MGFW4P)"
      },
      "encounter": {
        "reference": "Encounter/1a86b65e-fd05-43a9-9594-fc9cc18cad0a",
        "type": "Encounter"
      },
      "effectiveDateTime": "2021-10-05T10:21:10+00:00",
      "issued": "2021-10-05T10:21:56.000+00:00",
      "valueDateTime": "2021-11-10T00:00:00+00:00"
    },
    "request": {
      "method": "PUT",
      "url": "Observation/1a86b65e-fd05-43a9-9594-fc9cc18cad0a"
    }
  }, {
    "resource": {
      "resourceType": "Observation",
      "id": "c694a690-2745-4bbf-a1f9-0d6c5c01cc32",
      "meta": {
        "versionId": "1638781259000",
        "lastUpdated": "2021-12-06T09:00:59.000+00:00"
      },
      "status": "final",
      "code": {
        "coding": [ {
          "code": "5096AAAAAAAAAAAAAAAAAAAAAAAAAAAAAAAA",
          "display": "RETURN VISIT DATE"
        }, {
          "system": "https://cielterminology.org",
          "code": "5096"
        } ],
        "text": "RETURN VISIT DATE"
      },
      "subject": {
        "reference": "Patient/b703b01e-1d2c-11eb-8abc-0242e805c5c5",
        "type": "Patient",
        "display": "-TERESIA -TERESIA -TERESIA (OpenMRS ID: MGFW4P)"
      },
      "encounter": {
        "reference": "Encounter/6264cec9-1d74-495a-a5b3-081a0f28ecc7",
        "type": "Encounter"
      },
      "effectiveDateTime": "2021-12-06T09:00:33+00:00",
      "issued": "2021-12-06T09:00:59.000+00:00",
      "valueDateTime": "2022-01-04T00:00:00+00:00"
    },
    "request": {
      "method": "PUT",
      "url": "Observation/6264cec9-1d74-495a-a5b3-081a0f28ecc7"
    }
  }, {
    "resource": {
      "resourceType": "Observation",
      "id": "fe6c338b-e771-4873-89aa-3c396ca7f991",
      "meta": {
        "versionId": "1641546498000",
        "lastUpdated": "2022-01-07T09:08:18.000+00:00"
      },
      "status": "final",
      "code": {
        "coding": [ {
          "code": "5096AAAAAAAAAAAAAAAAAAAAAAAAAAAAAAAA",
          "display": "RETURN VISIT DATE"
        }, {
          "system": "https://cielterminology.org",
          "code": "5096"
        } ],
        "text": "RETURN VISIT DATE"
      },
      "subject": {
        "reference": "Patient/b703b01e-1d2c-11eb-8abc-0242e805c5c5",
        "type": "Patient",
        "display": "-TERESIA -TERESIA -TERESIA (OpenMRS ID: MGFW4P)"
      },
      "encounter": {
        "reference": "Encounter/da22075b-9d68-419c-977e-ed8a5e2bcf20",
        "type": "Encounter"
      },
      "effectiveDateTime": "2022-01-07T09:07:43+00:00",
      "issued": "2022-01-07T09:08:18.000+00:00",
      "valueDateTime": "2022-04-30T00:00:00+00:00"
    },
    "request": {
      "method": "PUT",
      "url": "Observation/da22075b-9d68-419c-977e-ed8a5e2bcf20"
    }
  }, {
    "resource": {
      "resourceType": "Observation",
      "id": "f70535d9-eae7-4741-a93c-55f99aa7a846",
      "meta": {
        "versionId": "1642678026000",
        "lastUpdated": "2022-01-20T11:27:06.000+00:00"
      },
      "status": "final",
      "code": {
        "coding": [ {
          "code": "5096AAAAAAAAAAAAAAAAAAAAAAAAAAAAAAAA",
          "display": "RETURN VISIT DATE"
        }, {
          "system": "https://cielterminology.org",
          "code": "5096"
        } ],
        "text": "RETURN VISIT DATE"
      },
      "subject": {
        "reference": "Patient/b703b01e-1d2c-11eb-8abc-0242e805c5c5",
        "type": "Patient",
        "display": "-TERESIA -TERESIA -TERESIA (OpenMRS ID: MGFW4P)"
      },
      "encounter": {
        "reference": "Encounter/f59b915e-e81f-4481-9d86-b96da943d1b6",
        "type": "Encounter"
      },
      "effectiveDateTime": "2022-01-20T11:26:02+00:00",
      "issued": "2022-01-20T11:27:06.000+00:00",
      "valueDateTime": "2022-04-14T00:00:00+00:00"
    },
    "request": {
      "method": "PUT",
      "url": "Observation/f59b915e-e81f-4481-9d86-b96da943d1b6"
    }
  }, {
    "resource": {
      "resourceType": "Observation",
      "id": "2e7f172d-fb24-45c3-8ab5-58325044473f",
      "meta": {
        "versionId": "1657543705000",
        "lastUpdated": "2022-07-11T12:48:25.000+00:00"
      },
      "status": "final",
      "code": {
        "coding": [ {
          "code": "161555AAAAAAAAAAAAAAAAAAAAAAAAAAAAAA",
          "display": "Reason for discontinuation of program"
        }, {
          "system": "https://cielterminology.org",
          "code": "161555"
        } ],
        "text": "Reason for discontinuation of program"
      },
      "subject": {
        "reference": "Patient/b703b01e-1d2c-11eb-8abc-0242e805c5c5",
        "type": "Patient",
        "display": "-TERESIA -TERESIA -TERESIA (OpenMRS ID: MGFW4P)"
      },
      "encounter": {
        "reference": "Encounter/9ee8c1c8-1938-4851-b1d1-e4454eed855d",
        "type": "Encounter"
      },
      "effectiveDateTime": "2022-07-11T12:47:08+00:00",
      "issued": "2022-07-11T12:48:25.000+00:00",
      "valueCodeableConcept": {
        "coding": [ {
          "code": "159492AAAAAAAAAAAAAAAAAAAAAAAAAAAAAA",
          "display": "Transferred out"
        }, {
          "system": "https://cielterminology.org",
          "code": "159492"
        } ],
        "text": "Transferred out"
      }
    },
    "request": {
      "method": "PUT",
      "url": "Observation/9ee8c1c8-1938-4851-b1d1-e4454eed855d"
    }
  }, {
    "resource": {
      "resourceType": "Observation",
      "id": "2bce886b-ce27-4518-9b30-1c90f3a21970",
      "meta": {
        "versionId": "1657543705000",
        "lastUpdated": "2022-07-11T12:48:25.000+00:00"
      },
      "status": "final",
      "code": {
        "coding": [ {
          "code": "164384AAAAAAAAAAAAAAAAAAAAAAAAAAAAAA",
          "display": "Treatment end date"
        }, {
          "system": "https://cielterminology.org",
          "code": "164384"
        }, {
          "system": "http://snomed.info/sct/",
          "code": "413947000"
        } ],
        "text": "Treatment end date"
      },
      "subject": {
        "reference": "Patient/b703b01e-1d2c-11eb-8abc-0242e805c5c5",
        "type": "Patient",
        "display": "-TERESIA -TERESIA -TERESIA (OpenMRS ID: MGFW4P)"
      },
      "encounter": {
        "reference": "Encounter/9ee8c1c8-1938-4851-b1d1-e4454eed855d",
        "type": "Encounter"
      },
      "effectiveDateTime": "2022-07-11T12:47:08+00:00",
      "issued": "2022-07-11T12:48:25.000+00:00",
      "valueDateTime": "2022-07-11T00:00:00+00:00"
    },
    "request": {
      "method": "PUT",
      "url": "Observation/9ee8c1c8-1938-4851-b1d1-e4454eed855d"
    }
  } ]
}