{
  "resourceType": "Bundle",
  "type": "transaction",
  "entry": [
    {
      "fullUrl": "urn:uuid:ba044532-e729-4246-8030-ad2c81158108",
      "request": {
        "url": "Patient",
        "method": "POST"
      },
      "resource": {
        "resourceType": "Patient",
        "name": [
          {
            "given": [
              "Mittens"
            ],
            "family": "Cat",
            "text": "PLHIV MMD 180 05-16"
          }
        ],
        "gender": "male",
        "birthDate": "2009-01-08"
      }
    },
    {
      "fullUrl": "urn:uuid:f43675ba-4ac8-4b66-868c-77d9c7052f59",
      "request": {
        "url": "Condition",
        "method": "POST"
      },
      "resource": {
        "resourceType": "Condition",
        "clinicalStatus": {
          "coding": [
            {
              "code": "active",
              "system": "http://terminology.hl7.org/CodeSystem/condition-clinical"
            }
          ]
        },
        "verificationStatus": {
          "coding": [
            {
              "code": "confirmed",
              "system": "http://terminology.hl7.org/CodeSystem/condition-ver-status"
            }
          ]
        },
        "subject": {
          "reference": "urn:uuid:ba044532-e729-4246-8030-ad2c81158108"
        },
        "code": {
          "coding": [
            {
              "code": "737378009",
              "system": "http://snomed.info/sct",
              "display": "World Health Organization 2007 Human immunodeficiency virus infection clinical stage 1 (finding)"
            }
          ]
        },
        "onsetDateTime": "2013-08-02"
      }
    },
    {
      "fullUrl": "urn:uuid:42581d1e-6c3a-406e-a90e-f364902198f1",
      "request": {
        "url": "Encounter",
        "method": "POST"
      },
      "resource": {
        "resourceType": "Encounter",
        "status": "finished",
        "class": {
          "code": "AMB",
          "system": "http://terminology.hl7.org/CodeSystem/v3-ActCode"
        },
	"serviceType": {
	  "coding": [
	    {
	      "code": "788081006",
	      "system": "http://snomed.info/sct"
	    }
	  ]
	},
        "subject": {
          "reference": "urn:uuid:ba044532-e729-4246-8030-ad2c81158108"
        },
        "serviceProvider": {
          "reference": "Organization/Organization-DAK"
        },
        "location": [
          {
            "location": {
              "reference": "Location/Location-DAK"
            }
          }
        ],
        "period": {
          "start": "2022-05-16",
          "end": "2022-05-16"
        }
      }
    },
    {
      "fullUrl": "urn:uuid:f1b97806-3126-491a-ada9-7dd3c0d30d47",
      "request": {
        "url": "Observation",
        "method": "POST"
      },
      "resource": {
        "resourceType": "Observation",
        "status": "final",
        "encounter": {
          "reference": "urn:uuid:42581d1e-6c3a-406e-a90e-f364902198f1"
        },
        "subject": {
          "reference": "urn:uuid:ba044532-e729-4246-8030-ad2c81158108"
        },
        "code": {
          "coding": [
            {
              "code": "258703001",
              "system": "http://snomed.info/sct",
              "display": "Day (qualifier value)"
            }
          ]
        },
        "valueInteger": 180,
        "effectiveDateTime": "2022-05-16"
      }
    }
  ]
}
