{
  "resourceType": "Bundle",
  "id": "0a2f4c9b-0963-4ea6-8d8c-da9b461460d1",
  "entry": [ {
    "resource": {
      "resourceType": "Patient",
      "id": "ad2f1bbd-1d2c-11eb-8abc-0242e805c5c5",
      "meta": {
        "versionId": "1604347128000",
        "lastUpdated": "2020-11-02T19:58:48.000+00:00"
      },
      "identifier": [ {
        "id": "ad3b81c7-1d2c-11eb-8abc-0242e805c5c5",
        "extension": [ {
          "url": "http://fhir.openmrs.org/ext/patient/identifier#location",
          "valueReference": {
            "reference": "Location/a92f9952-1c4c-4659-893b-a6b56a16b1df",
            "type": "Location",
            "display": "Ngarua Health Centre"
          }
        } ],
        "use": "official",
        "type": {
          "coding": [ {
            "code": "dfacd928-0370-4315-99d7-6ec1c9f7ae76"
          } ],
          "text": "OpenMRS ID"
        },
        "value": "MGFNJ4"
      }, {
        "id": "ad2f40c0-1d2c-11eb-8abc-0242e805c5c5",
        "extension": [ {
          "url": "http://fhir.openmrs.org/ext/patient/identifier#location",
          "valueReference": {
            "reference": "Location/a92f9952-1c4c-4659-893b-a6b56a16b1df",
            "type": "Location",
            "display": "Ngarua Health Centre"
          }
        } ],
        "use": "usual",
        "type": {
          "coding": [ {
            "code": "05ee9cf4-7242-4a17-b4d4-00f707265c8a"
          } ],
          "text": "Unique Patient Number"
        },
        "value": "15339000304"
      } ],
      "active": true,
      "name": [ {
        "id": "ad2f2836-1d2c-11eb-8abc-0242e805c5c5",
        "family": "Lekendi",
        "given": [ "Lekendi", "Lekendi" ]
      } ],
      "gender": "female",
      "birthDate": "1981-07-15",
      "deceasedBoolean": false,
      "address": [ {
        "id": "ad2f32b4-1d2c-11eb-8abc-0242e805c5c5",
        "extension": [ {
          "url": "http://fhir.openmrs.org/ext/address",
          "extension": [ {
            "url": "http://fhir.openmrs.org/ext/address#address1",
            "valueString": "195 address1"
          } ]
        } ],
        "use": "old"
      } ]
    },
    "request": {
      "method": "PUT",
      "url": "Patient/ad2f1bbd-1d2c-11eb-8abc-0242e805c5c5"
    }
  }, {
    "resource": {
      "resourceType": "Observation",
      "id": "06eb5892-1d2e-11eb-8abc-0242e805c5c5",
      "meta": {
        "versionId": "1604347708000",
        "lastUpdated": "2020-11-02T20:08:28.000+00:00"
      },
      "status": "final",
      "code": {
        "coding": [ {
          "code": "5096AAAAAAAAAAAAAAAAAAAAAAAAAAAAAAAA",
          "display": "RETURN VISIT DATE"
        }, {
          "system": "https://cielterminology.org",
          "code": "5096"
        } ],
        "text": "RETURN VISIT DATE"
      },
      "subject": {
        "reference": "Patient/ad2f1bbd-1d2c-11eb-8abc-0242e805c5c5",
        "type": "Patient",
        "display": "Lekendi Lekendi Lekendi (OpenMRS ID: MGFNJ4)"
      },
      "encounter": {
        "reference": "Encounter/06eb1c24-1d2e-11eb-8abc-0242e805c5c5",
        "type": "Encounter"
      },
      "effectiveDateTime": "2016-07-27T00:00:00+00:00",
      "issued": "2020-11-02T20:08:28.000+00:00",
      "valueDateTime": "2016-08-26T00:00:00+00:00"
    },
    "request": {
      "method": "PUT",
      "url": "Observation/06eb1c24-1d2e-11eb-8abc-0242e805c5c5"
    }
  }, {
    "resource": {
      "resourceType": "Observation",
      "id": "3689ed60-1d2d-11eb-8abc-0242e805c5c5",
      "meta": {
        "versionId": "1604347359000",
        "lastUpdated": "2020-11-02T20:02:39.000+00:00"
      },
      "status": "final",
      "code": {
        "coding": [ {
          "code": "161555AAAAAAAAAAAAAAAAAAAAAAAAAAAAAA",
          "display": "Reason for discontinuation of program"
        }, {
          "system": "https://cielterminology.org",
          "code": "161555"
        } ],
        "text": "Reason for discontinuation of program"
      },
      "subject": {
        "reference": "Patient/ad2f1bbd-1d2c-11eb-8abc-0242e805c5c5",
        "type": "Patient",
        "display": "Lekendi Lekendi Lekendi (OpenMRS ID: MGFNJ4)"
      },
      "encounter": {
        "reference": "Encounter/3689c040-1d2d-11eb-8abc-0242e805c5c5",
        "type": "Encounter"
      },
      "effectiveDateTime": "2017-08-28T00:00:00+00:00",
      "issued": "2020-11-02T20:02:39.000+00:00",
      "valueCodeableConcept": {
        "coding": [ {
          "code": "159492AAAAAAAAAAAAAAAAAAAAAAAAAAAAAA",
          "display": "Transferred out"
        }, {
          "system": "https://cielterminology.org",
          "code": "159492"
        } ],
        "text": "Transferred out"
      }
    },
    "request": {
      "method": "PUT",
      "url": "Observation/3689c040-1d2d-11eb-8abc-0242e805c5c5"
    }
  }, {
    "resource": {
      "resourceType": "Patient",
      "id": "ad3bac2c-1d2c-11eb-8abc-0242e805c5c5",
      "meta": {
        "versionId": "1604347128000",
        "lastUpdated": "2020-11-02T19:58:48.000+00:00"
      },
      "identifier": [ {
        "id": "ad4e5efa-1d2c-11eb-8abc-0242e805c5c5",
        "extension": [ {
          "url": "http://fhir.openmrs.org/ext/patient/identifier#location",
          "valueReference": {
            "reference": "Location/a92f9952-1c4c-4659-893b-a6b56a16b1df",
            "type": "Location",
            "display": "Ngarua Health Centre"
          }
        } ],
        "use": "official",
        "type": {
          "coding": [ {
            "code": "dfacd928-0370-4315-99d7-6ec1c9f7ae76"
          } ],
          "text": "OpenMRS ID"
        },
        "value": "MGFNKX"
      }, {
        "id": "ad3c273a-1d2c-11eb-8abc-0242e805c5c5",
        "extension": [ {
          "url": "http://fhir.openmrs.org/ext/patient/identifier#location",
          "valueReference": {
            "reference": "Location/a92f9952-1c4c-4659-893b-a6b56a16b1df",
            "type": "Location",
            "display": "Ngarua Health Centre"
          }
        } ],
        "use": "usual",
        "type": {
          "coding": [ {
            "code": "05ee9cf4-7242-4a17-b4d4-00f707265c8a"
          } ],
          "text": "Unique Patient Number"
        },
        "value": "15339000307"
      } ],
      "active": true,
      "name": [ {
        "id": "ad3bcc22-1d2c-11eb-8abc-0242e805c5c5",
        "family": "Abigael",
        "given": [ "Abigael", "Abigael" ]
      } ],
      "gender": "female",
      "birthDate": "1938-06-15",
      "deceasedBoolean": false,
      "address": [ {
        "id": "ad3bebf6-1d2c-11eb-8abc-0242e805c5c5",
        "extension": [ {
          "url": "http://fhir.openmrs.org/ext/address",
          "extension": [ {
            "url": "http://fhir.openmrs.org/ext/address#address1",
            "valueString": "196 address1"
          } ]
        } ],
        "use": "old"
      } ]
    },
    "request": {
      "method": "PUT",
      "url": "Patient/ad3bac2c-1d2c-11eb-8abc-0242e805c5c5"
    }
  }, {
    "resource": {
      "resourceType": "Observation",
      "id": "6ec5508d-1d2e-11eb-8abc-0242e805c5c5",
      "meta": {
        "versionId": "1604347882000",
        "lastUpdated": "2020-11-02T20:11:22.000+00:00"
      },
      "status": "final",
      "code": {
        "coding": [ {
          "code": "1193AAAAAAAAAAAAAAAAAAAAAAAAAAAAAAAA",
          "display": "CURRENT DRUGS USED"
        }, {
          "system": "https://cielterminology.org",
          "code": "1193"
        } ],
        "text": "CURRENT DRUGS USED"
      },
      "subject": {
        "reference": "Patient/ad3bac2c-1d2c-11eb-8abc-0242e805c5c5",
        "type": "Patient",
        "display": "Abigael Abigael Abigael (OpenMRS ID: MGFNKX)"
      },
      "encounter": {
        "reference": "Encounter/6ec50e46-1d2e-11eb-8abc-0242e805c5c5",
        "type": "Encounter"
      },
      "effectiveDateTime": "2016-07-29T00:00:00+00:00",
      "issued": "2020-11-02T20:11:22.000+00:00",
      "valueCodeableConcept": {
        "coding": [ {
          "code": "164505AAAAAAAAAAAAAAAAAAAAAAAAAAAAAA",
          "display": "Lamivudine / Efavirenz / Tenofovir"
        }, {
          "system": "https://cielterminology.org",
          "code": "164505"
        } ],
        "text": "Lamivudine / Efavirenz / Tenofovir"
      }
    },
    "request": {
      "method": "PUT",
      "url": "Observation/6ec50e46-1d2e-11eb-8abc-0242e805c5c5"
    }
  }, {
    "resource": {
      "resourceType": "Observation",
      "id": "06fd446d-1d2e-11eb-8abc-0242e805c5c5",
      "meta": {
        "versionId": "1604347708000",
        "lastUpdated": "2020-11-02T20:08:28.000+00:00"
      },
      "status": "final",
      "code": {
        "coding": [ {
          "code": "5096AAAAAAAAAAAAAAAAAAAAAAAAAAAAAAAA",
          "display": "RETURN VISIT DATE"
        }, {
          "system": "https://cielterminology.org",
          "code": "5096"
        } ],
        "text": "RETURN VISIT DATE"
      },
      "subject": {
        "reference": "Patient/ad3bac2c-1d2c-11eb-8abc-0242e805c5c5",
        "type": "Patient",
        "display": "Abigael Abigael Abigael (OpenMRS ID: MGFNKX)"
      },
      "encounter": {
        "reference": "Encounter/06fd026f-1d2e-11eb-8abc-0242e805c5c5",
        "type": "Encounter"
      },
      "effectiveDateTime": "2016-07-29T00:00:00+00:00",
      "issued": "2020-11-02T20:08:28.000+00:00",
      "valueDateTime": "2016-08-13T00:00:00+00:00"
    },
    "request": {
      "method": "PUT",
      "url": "Observation/06fd026f-1d2e-11eb-8abc-0242e805c5c5"
    }
  }, {
    "resource": {
      "resourceType": "Observation",
      "id": "368f0c30-1d2d-11eb-8abc-0242e805c5c5",
      "meta": {
        "versionId": "1604347359000",
        "lastUpdated": "2020-11-02T20:02:39.000+00:00"
      },
      "status": "final",
      "code": {
        "coding": [ {
          "code": "161555AAAAAAAAAAAAAAAAAAAAAAAAAAAAAA",
          "display": "Reason for discontinuation of program"
        }, {
          "system": "https://cielterminology.org",
          "code": "161555"
        } ],
        "text": "Reason for discontinuation of program"
      },
      "subject": {
        "reference": "Patient/ad3bac2c-1d2c-11eb-8abc-0242e805c5c5",
        "type": "Patient",
        "display": "Abigael Abigael Abigael (OpenMRS ID: MGFNKX)"
      },
      "encounter": {
        "reference": "Encounter/368edad6-1d2d-11eb-8abc-0242e805c5c5",
        "type": "Encounter"
      },
      "effectiveDateTime": "2016-11-11T00:00:00+00:00",
      "issued": "2020-11-02T20:02:39.000+00:00",
      "valueCodeableConcept": {
        "coding": [ {
          "code": "5240AAAAAAAAAAAAAAAAAAAAAAAAAAAAAAAA",
          "display": "Lost to followup"
        }, {
          "system": "https://cielterminology.org",
          "code": "5240"
        }, {
          "system": "http://snomed.info/sct/",
          "code": "399307001"
        } ],
        "text": "Lost to followup"
      }
    },
    "request": {
      "method": "PUT",
      "url": "Observation/368edad6-1d2d-11eb-8abc-0242e805c5c5"
    }
  }, {
    "resource": {
      "resourceType": "Patient",
      "id": "ad4e8d88-1d2c-11eb-8abc-0242e805c5c5",
      "meta": {
        "versionId": "1604347128000",
        "lastUpdated": "2020-11-02T19:58:48.000+00:00"
      },
      "identifier": [ {
        "id": "ad5d82d5-1d2c-11eb-8abc-0242e805c5c5",
        "extension": [ {
          "url": "http://fhir.openmrs.org/ext/patient/identifier#location",
          "valueReference": {
            "reference": "Location/a92f9952-1c4c-4659-893b-a6b56a16b1df",
            "type": "Location",
            "display": "Ngarua Health Centre"
          }
        } ],
        "use": "official",
        "type": {
          "coding": [ {
            "code": "dfacd928-0370-4315-99d7-6ec1c9f7ae76"
          } ],
          "text": "OpenMRS ID"
        },
        "value": "MGFNLV"
      }, {
        "id": "ad4efbc7-1d2c-11eb-8abc-0242e805c5c5",
        "extension": [ {
          "url": "http://fhir.openmrs.org/ext/patient/identifier#location",
          "valueReference": {
            "reference": "Location/a92f9952-1c4c-4659-893b-a6b56a16b1df",
            "type": "Location",
            "display": "Ngarua Health Centre"
          }
        } ],
        "use": "usual",
        "type": {
          "coding": [ {
            "code": "05ee9cf4-7242-4a17-b4d4-00f707265c8a"
          } ],
          "text": "Unique Patient Number"
        },
        "value": "15339000309"
      } ],
      "active": true,
      "name": [ {
        "id": "ad4eac7e-1d2c-11eb-8abc-0242e805c5c5",
        "family": "Dice",
        "given": [ "Dice", "Dice" ]
      } ],
      "gender": "female",
      "birthDate": "1988-02-11",
      "deceasedBoolean": false,
      "address": [ {
        "id": "ad4ecc85-1d2c-11eb-8abc-0242e805c5c5",
        "extension": [ {
          "url": "http://fhir.openmrs.org/ext/address",
          "extension": [ {
            "url": "http://fhir.openmrs.org/ext/address#address1",
            "valueString": "197 address1"
          }, {
            "url": "http://fhir.openmrs.org/ext/address#address2",
            "valueString": "MUKINDU"
          }, {
            "url": "http://fhir.openmrs.org/ext/address#address4",
            "valueString": "MARMANET"
          } ]
        } ],
        "use": "old",
        "district": "LAIKIPIA",
        "state": "LAIKIPIA WEST"
      } ]
    },
    "request": {
      "method": "PUT",
      "url": "Patient/ad4e8d88-1d2c-11eb-8abc-0242e805c5c5"
    }
  }, {
    "resource": {
      "resourceType": "Observation",
      "id": "6ecbaf22-1d2e-11eb-8abc-0242e805c5c5",
      "meta": {
        "versionId": "1604347882000",
        "lastUpdated": "2020-11-02T20:11:22.000+00:00"
      },
      "status": "final",
      "code": {
        "coding": [ {
          "code": "1193AAAAAAAAAAAAAAAAAAAAAAAAAAAAAAAA",
          "display": "CURRENT DRUGS USED"
        }, {
          "system": "https://cielterminology.org",
          "code": "1193"
        } ],
        "text": "CURRENT DRUGS USED"
      },
      "subject": {
        "reference": "Patient/ad4e8d88-1d2c-11eb-8abc-0242e805c5c5",
        "type": "Patient",
        "display": "Dice Dice Dice (OpenMRS ID: MGFNLV)"
      },
      "encounter": {
        "reference": "Encounter/6ecb6b11-1d2e-11eb-8abc-0242e805c5c5",
        "type": "Encounter"
      },
      "effectiveDateTime": "2016-08-03T00:00:00+00:00",
      "issued": "2020-11-02T20:11:22.000+00:00",
      "valueCodeableConcept": {
        "coding": [ {
          "code": "164505AAAAAAAAAAAAAAAAAAAAAAAAAAAAAA",
          "display": "Lamivudine / Efavirenz / Tenofovir"
        }, {
          "system": "https://cielterminology.org",
          "code": "164505"
        } ],
        "text": "Lamivudine / Efavirenz / Tenofovir"
      }
    },
    "request": {
      "method": "PUT",
      "url": "Observation/6ecb6b11-1d2e-11eb-8abc-0242e805c5c5"
    }
  }, {
    "resource": {
      "resourceType": "Observation",
      "id": "0704e754-1d2e-11eb-8abc-0242e805c5c5",
      "meta": {
        "versionId": "1604347708000",
        "lastUpdated": "2020-11-02T20:08:28.000+00:00"
      },
      "status": "final",
      "code": {
        "coding": [ {
          "code": "5096AAAAAAAAAAAAAAAAAAAAAAAAAAAAAAAA",
          "display": "RETURN VISIT DATE"
        }, {
          "system": "https://cielterminology.org",
          "code": "5096"
        } ],
        "text": "RETURN VISIT DATE"
      },
      "subject": {
        "reference": "Patient/ad4e8d88-1d2c-11eb-8abc-0242e805c5c5",
        "type": "Patient",
        "display": "Dice Dice Dice (OpenMRS ID: MGFNLV)"
      },
      "encounter": {
        "reference": "Encounter/0704a617-1d2e-11eb-8abc-0242e805c5c5",
        "type": "Encounter"
      },
      "effectiveDateTime": "2016-08-03T00:00:00+00:00",
      "issued": "2020-11-02T20:08:28.000+00:00",
      "valueDateTime": "2016-08-18T00:00:00+00:00"
    },
    "request": {
      "method": "PUT",
      "url": "Observation/0704a617-1d2e-11eb-8abc-0242e805c5c5"
    }
  }, {
    "resource": {
      "resourceType": "Observation",
      "id": "070ccfe6-1d2e-11eb-8abc-0242e805c5c5",
      "meta": {
        "versionId": "1604347708000",
        "lastUpdated": "2020-11-02T20:08:28.000+00:00"
      },
      "status": "final",
      "code": {
        "coding": [ {
          "code": "5096AAAAAAAAAAAAAAAAAAAAAAAAAAAAAAAA",
          "display": "RETURN VISIT DATE"
        }, {
          "system": "https://cielterminology.org",
          "code": "5096"
        } ],
        "text": "RETURN VISIT DATE"
      },
      "subject": {
        "reference": "Patient/ad4e8d88-1d2c-11eb-8abc-0242e805c5c5",
        "type": "Patient",
        "display": "Dice Dice Dice (OpenMRS ID: MGFNLV)"
      },
      "encounter": {
        "reference": "Encounter/070c4c40-1d2e-11eb-8abc-0242e805c5c5",
        "type": "Encounter"
      },
      "effectiveDateTime": "2017-12-07T00:00:00+00:00",
      "issued": "2020-11-02T20:08:28.000+00:00",
      "valueDateTime": "2018-01-06T00:00:00+00:00"
    },
    "request": {
      "method": "PUT",
      "url": "Observation/070c4c40-1d2e-11eb-8abc-0242e805c5c5"
    }
  }, {
    "resource": {
      "resourceType": "Observation",
      "id": "07148802-1d2e-11eb-8abc-0242e805c5c5",
      "meta": {
        "versionId": "1604347708000",
        "lastUpdated": "2020-11-02T20:08:28.000+00:00"
      },
      "status": "final",
      "code": {
        "coding": [ {
          "code": "5096AAAAAAAAAAAAAAAAAAAAAAAAAAAAAAAA",
          "display": "RETURN VISIT DATE"
        }, {
          "system": "https://cielterminology.org",
          "code": "5096"
        } ],
        "text": "RETURN VISIT DATE"
      },
      "subject": {
        "reference": "Patient/ad4e8d88-1d2c-11eb-8abc-0242e805c5c5",
        "type": "Patient",
        "display": "Dice Dice Dice (OpenMRS ID: MGFNLV)"
      },
      "encounter": {
        "reference": "Encounter/07140289-1d2e-11eb-8abc-0242e805c5c5",
        "type": "Encounter"
      },
      "effectiveDateTime": "2018-02-05T00:00:00+00:00",
      "issued": "2020-11-02T20:08:28.000+00:00",
      "valueDateTime": "2018-03-08T00:00:00+00:00"
    },
    "request": {
      "method": "PUT",
      "url": "Observation/07140289-1d2e-11eb-8abc-0242e805c5c5"
    }
  }, {
    "resource": {
      "resourceType": "Observation",
      "id": "071c1fb8-1d2e-11eb-8abc-0242e805c5c5",
      "meta": {
        "versionId": "1604347708000",
        "lastUpdated": "2020-11-02T20:08:28.000+00:00"
      },
      "status": "final",
      "code": {
        "coding": [ {
          "code": "5096AAAAAAAAAAAAAAAAAAAAAAAAAAAAAAAA",
          "display": "RETURN VISIT DATE"
        }, {
          "system": "https://cielterminology.org",
          "code": "5096"
        } ],
        "text": "RETURN VISIT DATE"
      },
      "subject": {
        "reference": "Patient/ad4e8d88-1d2c-11eb-8abc-0242e805c5c5",
        "type": "Patient",
        "display": "Dice Dice Dice (OpenMRS ID: MGFNLV)"
      },
      "encounter": {
        "reference": "Encounter/071b94e9-1d2e-11eb-8abc-0242e805c5c5",
        "type": "Encounter"
      },
      "effectiveDateTime": "2018-04-03T00:00:00+00:00",
      "issued": "2020-11-02T20:08:28.000+00:00",
      "valueDateTime": "2018-05-03T00:00:00+00:00"
    },
    "request": {
      "method": "PUT",
      "url": "Observation/071b94e9-1d2e-11eb-8abc-0242e805c5c5"
    }
  }, {
    "resource": {
      "resourceType": "Observation",
      "id": "072649c0-1d2e-11eb-8abc-0242e805c5c5",
      "meta": {
        "versionId": "1604347709000",
        "lastUpdated": "2020-11-02T20:08:29.000+00:00"
      },
      "status": "final",
      "code": {
        "coding": [ {
          "code": "5096AAAAAAAAAAAAAAAAAAAAAAAAAAAAAAAA",
          "display": "RETURN VISIT DATE"
        }, {
          "system": "https://cielterminology.org",
          "code": "5096"
        } ],
        "text": "RETURN VISIT DATE"
      },
      "subject": {
        "reference": "Patient/ad4e8d88-1d2c-11eb-8abc-0242e805c5c5",
        "type": "Patient",
        "display": "Dice Dice Dice (OpenMRS ID: MGFNLV)"
      },
      "encounter": {
        "reference": "Encounter/0725c368-1d2e-11eb-8abc-0242e805c5c5",
        "type": "Encounter"
      },
      "effectiveDateTime": "2018-06-07T00:00:00+00:00",
      "issued": "2020-11-02T20:08:29.000+00:00",
      "valueDateTime": "2018-07-07T00:00:00+00:00"
    },
    "request": {
      "method": "PUT",
      "url": "Observation/0725c368-1d2e-11eb-8abc-0242e805c5c5"
    }
  }, {
    "resource": {
      "resourceType": "Observation",
      "id": "073072c4-1d2e-11eb-8abc-0242e805c5c5",
      "meta": {
        "versionId": "1604347709000",
        "lastUpdated": "2020-11-02T20:08:29.000+00:00"
      },
      "status": "final",
      "code": {
        "coding": [ {
          "code": "5096AAAAAAAAAAAAAAAAAAAAAAAAAAAAAAAA",
          "display": "RETURN VISIT DATE"
        }, {
          "system": "https://cielterminology.org",
          "code": "5096"
        } ],
        "text": "RETURN VISIT DATE"
      },
      "subject": {
        "reference": "Patient/ad4e8d88-1d2c-11eb-8abc-0242e805c5c5",
        "type": "Patient",
        "display": "Dice Dice Dice (OpenMRS ID: MGFNLV)"
      },
      "encounter": {
        "reference": "Encounter/072fee9e-1d2e-11eb-8abc-0242e805c5c5",
        "type": "Encounter"
      },
      "effectiveDateTime": "2018-08-02T00:00:00+00:00",
      "issued": "2020-11-02T20:08:29.000+00:00",
      "valueDateTime": "2018-09-04T00:00:00+00:00"
    },
    "request": {
      "method": "PUT",
      "url": "Observation/072fee9e-1d2e-11eb-8abc-0242e805c5c5"
    }
  }, {
    "resource": {
      "resourceType": "Observation",
      "id": "07380286-1d2e-11eb-8abc-0242e805c5c5",
      "meta": {
        "versionId": "1604347709000",
        "lastUpdated": "2020-11-02T20:08:29.000+00:00"
      },
      "status": "final",
      "code": {
        "coding": [ {
          "code": "5096AAAAAAAAAAAAAAAAAAAAAAAAAAAAAAAA",
          "display": "RETURN VISIT DATE"
        }, {
          "system": "https://cielterminology.org",
          "code": "5096"
        } ],
        "text": "RETURN VISIT DATE"
      },
      "subject": {
        "reference": "Patient/ad4e8d88-1d2c-11eb-8abc-0242e805c5c5",
        "type": "Patient",
        "display": "Dice Dice Dice (OpenMRS ID: MGFNLV)"
      },
      "encounter": {
        "reference": "Encounter/073783f9-1d2e-11eb-8abc-0242e805c5c5",
        "type": "Encounter"
      },
      "effectiveDateTime": "2018-09-04T00:00:00+00:00",
      "issued": "2020-11-02T20:08:29.000+00:00",
      "valueDateTime": "2018-10-04T00:00:00+00:00"
    },
    "request": {
      "method": "PUT",
      "url": "Observation/073783f9-1d2e-11eb-8abc-0242e805c5c5"
    }
  }, {
    "resource": {
      "resourceType": "Observation",
      "id": "073fb8c8-1d2e-11eb-8abc-0242e805c5c5",
      "meta": {
        "versionId": "1604347709000",
        "lastUpdated": "2020-11-02T20:08:29.000+00:00"
      },
      "status": "final",
      "code": {
        "coding": [ {
          "code": "5096AAAAAAAAAAAAAAAAAAAAAAAAAAAAAAAA",
          "display": "RETURN VISIT DATE"
        }, {
          "system": "https://cielterminology.org",
          "code": "5096"
        } ],
        "text": "RETURN VISIT DATE"
      },
      "subject": {
        "reference": "Patient/ad4e8d88-1d2c-11eb-8abc-0242e805c5c5",
        "type": "Patient",
        "display": "Dice Dice Dice (OpenMRS ID: MGFNLV)"
      },
      "encounter": {
        "reference": "Encounter/073f3c34-1d2e-11eb-8abc-0242e805c5c5",
        "type": "Encounter"
      },
      "effectiveDateTime": "2018-10-10T00:00:00+00:00",
      "issued": "2020-11-02T20:08:29.000+00:00",
      "valueDateTime": "2018-12-06T00:00:00+00:00"
    },
    "request": {
      "method": "PUT",
      "url": "Observation/073f3c34-1d2e-11eb-8abc-0242e805c5c5"
    }
  }, {
    "resource": {
      "resourceType": "Observation",
      "id": "074efe86-1d2e-11eb-8abc-0242e805c5c5",
      "meta": {
        "versionId": "1604347709000",
        "lastUpdated": "2020-11-02T20:08:29.000+00:00"
      },
      "status": "final",
      "code": {
        "coding": [ {
          "code": "5096AAAAAAAAAAAAAAAAAAAAAAAAAAAAAAAA",
          "display": "RETURN VISIT DATE"
        }, {
          "system": "https://cielterminology.org",
          "code": "5096"
        } ],
        "text": "RETURN VISIT DATE"
      },
      "subject": {
        "reference": "Patient/ad4e8d88-1d2c-11eb-8abc-0242e805c5c5",
        "type": "Patient",
        "display": "Dice Dice Dice (OpenMRS ID: MGFNLV)"
      },
      "encounter": {
        "reference": "Encounter/074e8038-1d2e-11eb-8abc-0242e805c5c5",
        "type": "Encounter"
      },
      "effectiveDateTime": "2018-12-06T00:00:00+00:00",
      "issued": "2020-11-02T20:08:29.000+00:00",
      "valueDateTime": "2019-01-08T00:00:00+00:00"
    },
    "request": {
      "method": "PUT",
      "url": "Observation/074e8038-1d2e-11eb-8abc-0242e805c5c5"
    }
  }, {
    "resource": {
      "resourceType": "Observation",
      "id": "07591b9c-1d2e-11eb-8abc-0242e805c5c5",
      "meta": {
        "versionId": "1604347709000",
        "lastUpdated": "2020-11-02T20:08:29.000+00:00"
      },
      "status": "final",
      "code": {
        "coding": [ {
          "code": "5096AAAAAAAAAAAAAAAAAAAAAAAAAAAAAAAA",
          "display": "RETURN VISIT DATE"
        }, {
          "system": "https://cielterminology.org",
          "code": "5096"
        } ],
        "text": "RETURN VISIT DATE"
      },
      "subject": {
        "reference": "Patient/ad4e8d88-1d2c-11eb-8abc-0242e805c5c5",
        "type": "Patient",
        "display": "Dice Dice Dice (OpenMRS ID: MGFNLV)"
      },
      "encounter": {
        "reference": "Encounter/0758a239-1d2e-11eb-8abc-0242e805c5c5",
        "type": "Encounter"
      },
      "effectiveDateTime": "2019-01-08T00:00:00+00:00",
      "issued": "2020-11-02T20:08:29.000+00:00",
      "valueDateTime": "2019-02-07T00:00:00+00:00"
    },
    "request": {
      "method": "PUT",
      "url": "Observation/0758a239-1d2e-11eb-8abc-0242e805c5c5"
    }
  }, {
    "resource": {
      "resourceType": "Observation",
      "id": "07610202-1d2e-11eb-8abc-0242e805c5c5",
      "meta": {
        "versionId": "1604347709000",
        "lastUpdated": "2020-11-02T20:08:29.000+00:00"
      },
      "status": "final",
      "code": {
        "coding": [ {
          "code": "5096AAAAAAAAAAAAAAAAAAAAAAAAAAAAAAAA",
          "display": "RETURN VISIT DATE"
        }, {
          "system": "https://cielterminology.org",
          "code": "5096"
        } ],
        "text": "RETURN VISIT DATE"
      },
      "subject": {
        "reference": "Patient/ad4e8d88-1d2c-11eb-8abc-0242e805c5c5",
        "type": "Patient",
        "display": "Dice Dice Dice (OpenMRS ID: MGFNLV)"
      },
      "encounter": {
        "reference": "Encounter/07607809-1d2e-11eb-8abc-0242e805c5c5",
        "type": "Encounter"
      },
      "effectiveDateTime": "2019-03-06T00:00:00+00:00",
      "issued": "2020-11-02T20:08:29.000+00:00",
      "valueDateTime": "2019-04-09T00:00:00+00:00"
    },
    "request": {
      "method": "PUT",
      "url": "Observation/07607809-1d2e-11eb-8abc-0242e805c5c5"
    }
  }, {
    "resource": {
      "resourceType": "Observation",
      "id": "0768370f-1d2e-11eb-8abc-0242e805c5c5",
      "meta": {
        "versionId": "1604347709000",
        "lastUpdated": "2020-11-02T20:08:29.000+00:00"
      },
      "status": "final",
      "code": {
        "coding": [ {
          "code": "5096AAAAAAAAAAAAAAAAAAAAAAAAAAAAAAAA",
          "display": "RETURN VISIT DATE"
        }, {
          "system": "https://cielterminology.org",
          "code": "5096"
        } ],
        "text": "RETURN VISIT DATE"
      },
      "subject": {
        "reference": "Patient/ad4e8d88-1d2c-11eb-8abc-0242e805c5c5",
        "type": "Patient",
        "display": "Dice Dice Dice (OpenMRS ID: MGFNLV)"
      },
      "encounter": {
        "reference": "Encounter/0767f815-1d2e-11eb-8abc-0242e805c5c5",
        "type": "Encounter"
      },
      "effectiveDateTime": "2019-05-06T00:00:00+00:00",
      "issued": "2020-11-02T20:08:29.000+00:00",
      "valueDateTime": "2019-06-05T00:00:00+00:00"
    },
    "request": {
      "method": "PUT",
      "url": "Observation/0767f815-1d2e-11eb-8abc-0242e805c5c5"
    }
  }, {
    "resource": {
      "resourceType": "Observation",
      "id": "07708dd6-1d2e-11eb-8abc-0242e805c5c5",
      "meta": {
        "versionId": "1604347709000",
        "lastUpdated": "2020-11-02T20:08:29.000+00:00"
      },
      "status": "final",
      "code": {
        "coding": [ {
          "code": "5096AAAAAAAAAAAAAAAAAAAAAAAAAAAAAAAA",
          "display": "RETURN VISIT DATE"
        }, {
          "system": "https://cielterminology.org",
          "code": "5096"
        } ],
        "text": "RETURN VISIT DATE"
      },
      "subject": {
        "reference": "Patient/ad4e8d88-1d2c-11eb-8abc-0242e805c5c5",
        "type": "Patient",
        "display": "Dice Dice Dice (OpenMRS ID: MGFNLV)"
      },
      "encounter": {
        "reference": "Encounter/076fa17f-1d2e-11eb-8abc-0242e805c5c5",
        "type": "Encounter"
      },
      "effectiveDateTime": "2019-08-08T00:00:00+00:00",
      "issued": "2020-11-02T20:08:29.000+00:00",
      "valueDateTime": "2019-09-12T00:00:00+00:00"
    },
    "request": {
      "method": "PUT",
      "url": "Observation/076fa17f-1d2e-11eb-8abc-0242e805c5c5"
    }
  }, {
    "resource": {
      "resourceType": "Observation",
      "id": "07842170-1d2e-11eb-8abc-0242e805c5c5",
      "meta": {
        "versionId": "1604347709000",
        "lastUpdated": "2020-11-02T20:08:29.000+00:00"
      },
      "status": "final",
      "code": {
        "coding": [ {
          "code": "5096AAAAAAAAAAAAAAAAAAAAAAAAAAAAAAAA",
          "display": "RETURN VISIT DATE"
        }, {
          "system": "https://cielterminology.org",
          "code": "5096"
        } ],
        "text": "RETURN VISIT DATE"
      },
      "subject": {
        "reference": "Patient/ad4e8d88-1d2c-11eb-8abc-0242e805c5c5",
        "type": "Patient",
        "display": "Dice Dice Dice (OpenMRS ID: MGFNLV)"
      },
      "encounter": {
        "reference": "Encounter/0783182d-1d2e-11eb-8abc-0242e805c5c5",
        "type": "Encounter"
      },
      "effectiveDateTime": "2020-07-30T00:00:00+00:00",
      "issued": "2020-11-02T20:08:29.000+00:00",
      "valueDateTime": "2020-08-29T00:00:00+00:00"
    },
    "request": {
      "method": "PUT",
      "url": "Observation/0783182d-1d2e-11eb-8abc-0242e805c5c5"
    }
  }, {
    "resource": {
      "resourceType": "Observation",
      "id": "07956edf-1d2e-11eb-8abc-0242e805c5c5",
      "meta": {
        "versionId": "1604347709000",
        "lastUpdated": "2020-11-02T20:08:29.000+00:00"
      },
      "status": "final",
      "code": {
        "coding": [ {
          "code": "5096AAAAAAAAAAAAAAAAAAAAAAAAAAAAAAAA",
          "display": "RETURN VISIT DATE"
        }, {
          "system": "https://cielterminology.org",
          "code": "5096"
        } ],
        "text": "RETURN VISIT DATE"
      },
      "subject": {
        "reference": "Patient/ad4e8d88-1d2c-11eb-8abc-0242e805c5c5",
        "type": "Patient",
        "display": "Dice Dice Dice (OpenMRS ID: MGFNLV)"
      },
      "encounter": {
        "reference": "Encounter/078f5753-1d2e-11eb-8abc-0242e805c5c5",
        "type": "Encounter"
      },
      "effectiveDateTime": "2020-09-08T00:00:00+00:00",
      "issued": "2020-11-02T20:08:29.000+00:00",
      "valueDateTime": "2020-10-18T00:00:00+00:00"
    },
    "request": {
      "method": "PUT",
      "url": "Observation/078f5753-1d2e-11eb-8abc-0242e805c5c5"
    }
  }, {
    "resource": {
      "resourceType": "Patient",
      "id": "ad5dad34-1d2c-11eb-8abc-0242e805c5c5",
      "meta": {
        "versionId": "1604347128000",
        "lastUpdated": "2020-11-02T19:58:48.000+00:00"
      },
      "identifier": [ {
        "id": "ad73505a-1d2c-11eb-8abc-0242e805c5c5",
        "extension": [ {
          "url": "http://fhir.openmrs.org/ext/patient/identifier#location",
          "valueReference": {
            "reference": "Location/a92f9952-1c4c-4659-893b-a6b56a16b1df",
            "type": "Location",
            "display": "Ngarua Health Centre"
          }
        } ],
        "use": "official",
        "type": {
          "coding": [ {
            "code": "dfacd928-0370-4315-99d7-6ec1c9f7ae76"
          } ],
          "text": "OpenMRS ID"
        },
        "value": "MGFNMT"
      }, {
        "id": "ad5df0d9-1d2c-11eb-8abc-0242e805c5c5",
        "extension": [ {
          "url": "http://fhir.openmrs.org/ext/patient/identifier#location",
          "valueReference": {
            "reference": "Location/a92f9952-1c4c-4659-893b-a6b56a16b1df",
            "type": "Location",
            "display": "Ngarua Health Centre"
          }
        } ],
        "use": "usual",
        "type": {
          "coding": [ {
            "code": "05ee9cf4-7242-4a17-b4d4-00f707265c8a"
          } ],
          "text": "Unique Patient Number"
        },
        "value": "15339000228"
      } ],
      "active": true,
      "name": [ {
        "id": "ad5dc32d-1d2c-11eb-8abc-0242e805c5c5",
        "family": "AUDIA",
        "given": [ "AUDIA", "AUDIA" ]
      } ],
      "gender": "female",
      "birthDate": "1979-06-15",
      "deceasedBoolean": false,
      "address": [ {
        "id": "ad5dd393-1d2c-11eb-8abc-0242e805c5c5",
        "extension": [ {
          "url": "http://fhir.openmrs.org/ext/address",
          "extension": [ {
            "url": "http://fhir.openmrs.org/ext/address#address1",
            "valueString": "198 address1"
          } ]
        } ],
        "use": "old"
      } ]
    },
    "request": {
      "method": "PUT",
      "url": "Patient/ad5dad34-1d2c-11eb-8abc-0242e805c5c5"
    }
  }, {
    "resource": {
      "resourceType": "Observation",
      "id": "6ed8716c-1d2e-11eb-8abc-0242e805c5c5",
      "meta": {
        "versionId": "1604347883000",
        "lastUpdated": "2020-11-02T20:11:23.000+00:00"
      },
      "status": "final",
      "code": {
        "coding": [ {
          "code": "1193AAAAAAAAAAAAAAAAAAAAAAAAAAAAAAAA",
          "display": "CURRENT DRUGS USED"
        }, {
          "system": "https://cielterminology.org",
          "code": "1193"
        } ],
        "text": "CURRENT DRUGS USED"
      },
      "subject": {
        "reference": "Patient/ad5dad34-1d2c-11eb-8abc-0242e805c5c5",
        "type": "Patient",
        "display": "AUDIA AUDIA AUDIA (OpenMRS ID: MGFNMT)"
      },
      "encounter": {
        "reference": "Encounter/6ed82c76-1d2e-11eb-8abc-0242e805c5c5",
        "type": "Encounter"
      },
      "effectiveDateTime": "2016-07-03T00:00:00+00:00",
      "issued": "2020-11-02T20:11:23.000+00:00",
      "valueCodeableConcept": {
        "coding": [ {
          "code": "164505AAAAAAAAAAAAAAAAAAAAAAAAAAAAAA",
          "display": "Lamivudine / Efavirenz / Tenofovir"
        }, {
          "system": "https://cielterminology.org",
          "code": "164505"
        } ],
        "text": "Lamivudine / Efavirenz / Tenofovir"
      }
    },
    "request": {
      "method": "PUT",
      "url": "Observation/6ed82c76-1d2e-11eb-8abc-0242e805c5c5"
    }
  }, {
    "resource": {
      "resourceType": "Observation",
      "id": "079c7016-1d2e-11eb-8abc-0242e805c5c5",
      "meta": {
        "versionId": "1604347709000",
        "lastUpdated": "2020-11-02T20:08:29.000+00:00"
      },
      "status": "final",
      "code": {
        "coding": [ {
          "code": "5096AAAAAAAAAAAAAAAAAAAAAAAAAAAAAAAA",
          "display": "RETURN VISIT DATE"
        }, {
          "system": "https://cielterminology.org",
          "code": "5096"
        } ],
        "text": "RETURN VISIT DATE"
      },
      "subject": {
        "reference": "Patient/ad5dad34-1d2c-11eb-8abc-0242e805c5c5",
        "type": "Patient",
        "display": "AUDIA AUDIA AUDIA (OpenMRS ID: MGFNMT)"
      },
      "encounter": {
        "reference": "Encounter/079c35ee-1d2e-11eb-8abc-0242e805c5c5",
        "type": "Encounter"
      },
      "effectiveDateTime": "2016-07-03T00:00:00+00:00",
      "issued": "2020-11-02T20:08:29.000+00:00",
      "valueDateTime": "2016-08-02T00:00:00+00:00"
    },
    "request": {
      "method": "PUT",
      "url": "Observation/079c35ee-1d2e-11eb-8abc-0242e805c5c5"
    }
  }, {
    "resource": {
      "resourceType": "Observation",
      "id": "07a98df2-1d2e-11eb-8abc-0242e805c5c5",
      "meta": {
        "versionId": "1604347709000",
        "lastUpdated": "2020-11-02T20:08:29.000+00:00"
      },
      "status": "final",
      "code": {
        "coding": [ {
          "code": "5096AAAAAAAAAAAAAAAAAAAAAAAAAAAAAAAA",
          "display": "RETURN VISIT DATE"
        }, {
          "system": "https://cielterminology.org",
          "code": "5096"
        } ],
        "text": "RETURN VISIT DATE"
      },
      "subject": {
        "reference": "Patient/ad5dad34-1d2c-11eb-8abc-0242e805c5c5",
        "type": "Patient",
        "display": "AUDIA AUDIA AUDIA (OpenMRS ID: MGFNMT)"
      },
      "encounter": {
        "reference": "Encounter/07a90684-1d2e-11eb-8abc-0242e805c5c5",
        "type": "Encounter"
      },
      "effectiveDateTime": "2017-07-07T00:00:00+00:00",
      "issued": "2020-11-02T20:08:29.000+00:00",
      "valueDateTime": "2017-08-06T00:00:00+00:00"
    },
    "request": {
      "method": "PUT",
      "url": "Observation/07a90684-1d2e-11eb-8abc-0242e805c5c5"
    }
  }, {
    "resource": {
      "resourceType": "Observation",
      "id": "07b0f05f-1d2e-11eb-8abc-0242e805c5c5",
      "meta": {
        "versionId": "1604347709000",
        "lastUpdated": "2020-11-02T20:08:29.000+00:00"
      },
      "status": "final",
      "code": {
        "coding": [ {
          "code": "5096AAAAAAAAAAAAAAAAAAAAAAAAAAAAAAAA",
          "display": "RETURN VISIT DATE"
        }, {
          "system": "https://cielterminology.org",
          "code": "5096"
        } ],
        "text": "RETURN VISIT DATE"
      },
      "subject": {
        "reference": "Patient/ad5dad34-1d2c-11eb-8abc-0242e805c5c5",
        "type": "Patient",
        "display": "AUDIA AUDIA AUDIA (OpenMRS ID: MGFNMT)"
      },
      "encounter": {
        "reference": "Encounter/07b083d3-1d2e-11eb-8abc-0242e805c5c5",
        "type": "Encounter"
      },
      "effectiveDateTime": "2018-01-19T00:00:00+00:00",
      "issued": "2020-11-02T20:08:29.000+00:00",
      "valueDateTime": "2018-02-18T00:00:00+00:00"
    },
    "request": {
      "method": "PUT",
      "url": "Observation/07b083d3-1d2e-11eb-8abc-0242e805c5c5"
    }
  }, {
    "resource": {
      "resourceType": "Observation",
      "id": "3697f90e-1d2d-11eb-8abc-0242e805c5c5",
      "meta": {
        "versionId": "1604347359000",
        "lastUpdated": "2020-11-02T20:02:39.000+00:00"
      },
      "status": "final",
      "code": {
        "coding": [ {
          "code": "161555AAAAAAAAAAAAAAAAAAAAAAAAAAAAAA",
          "display": "Reason for discontinuation of program"
        }, {
          "system": "https://cielterminology.org",
          "code": "161555"
        } ],
        "text": "Reason for discontinuation of program"
      },
      "subject": {
        "reference": "Patient/ad5dad34-1d2c-11eb-8abc-0242e805c5c5",
        "type": "Patient",
        "display": "AUDIA AUDIA AUDIA (OpenMRS ID: MGFNMT)"
      },
      "encounter": {
        "reference": "Encounter/3697c8ab-1d2d-11eb-8abc-0242e805c5c5",
        "type": "Encounter"
      },
      "effectiveDateTime": "2018-05-19T00:00:00+00:00",
      "issued": "2020-11-02T20:02:39.000+00:00",
      "valueCodeableConcept": {
        "coding": [ {
          "code": "5240AAAAAAAAAAAAAAAAAAAAAAAAAAAAAAAA",
          "display": "Lost to followup"
        }, {
          "system": "https://cielterminology.org",
          "code": "5240"
        }, {
          "system": "http://snomed.info/sct/",
          "code": "399307001"
        } ],
        "text": "Lost to followup"
      }
    },
    "request": {
      "method": "PUT",
      "url": "Observation/3697c8ab-1d2d-11eb-8abc-0242e805c5c5"
    }
  }, {
    "resource": {
      "resourceType": "Patient",
      "id": "ad73799f-1d2c-11eb-8abc-0242e805c5c5",
      "meta": {
        "versionId": "1604347129000",
        "lastUpdated": "2020-11-02T19:58:49.000+00:00"
      },
      "identifier": [ {
        "id": "ad83da27-1d2c-11eb-8abc-0242e805c5c5",
        "extension": [ {
          "url": "http://fhir.openmrs.org/ext/patient/identifier#location",
          "valueReference": {
            "reference": "Location/a92f9952-1c4c-4659-893b-a6b56a16b1df",
            "type": "Location",
            "display": "Ngarua Health Centre"
          }
        } ],
        "use": "official",
        "type": {
          "coding": [ {
            "code": "dfacd928-0370-4315-99d7-6ec1c9f7ae76"
          } ],
          "text": "OpenMRS ID"
        },
        "value": "MGFNNP"
      }, {
        "id": "ad73dd20-1d2c-11eb-8abc-0242e805c5c5",
        "extension": [ {
          "url": "http://fhir.openmrs.org/ext/patient/identifier#location",
          "valueReference": {
            "reference": "Location/a92f9952-1c4c-4659-893b-a6b56a16b1df",
            "type": "Location",
            "display": "Ngarua Health Centre"
          }
        } ],
        "use": "usual",
        "type": {
          "coding": [ {
            "code": "05ee9cf4-7242-4a17-b4d4-00f707265c8a"
          } ],
          "text": "Unique Patient Number"
        },
        "value": "15339000229"
      } ],
      "active": true,
      "name": [ {
        "id": "ad739920-1d2c-11eb-8abc-0242e805c5c5",
        "family": "Magrien",
        "given": [ "Magrien", "Magrien" ]
      } ],
      "gender": "female",
      "birthDate": "2007-08-15",
      "deceasedBoolean": false,
      "address": [ {
        "id": "ad73b76b-1d2c-11eb-8abc-0242e805c5c5",
        "extension": [ {
          "url": "http://fhir.openmrs.org/ext/address",
          "extension": [ {
            "url": "http://fhir.openmrs.org/ext/address#address1",
            "valueString": "199 address1"
          } ]
        } ],
        "use": "old"
      } ]
    },
    "request": {
      "method": "PUT",
      "url": "Patient/ad73799f-1d2c-11eb-8abc-0242e805c5c5"
    }
  }, {
    "resource": {
      "resourceType": "Observation",
      "id": "6edeb96c-1d2e-11eb-8abc-0242e805c5c5",
      "meta": {
        "versionId": "1604347883000",
        "lastUpdated": "2020-11-02T20:11:23.000+00:00"
      },
      "status": "final",
      "code": {
        "coding": [ {
          "code": "1193AAAAAAAAAAAAAAAAAAAAAAAAAAAAAAAA",
          "display": "CURRENT DRUGS USED"
        }, {
          "system": "https://cielterminology.org",
          "code": "1193"
        } ],
        "text": "CURRENT DRUGS USED"
      },
      "subject": {
        "reference": "Patient/ad73799f-1d2c-11eb-8abc-0242e805c5c5",
        "type": "Patient",
        "display": "Magrien Magrien Magrien (OpenMRS ID: MGFNNP)"
      },
      "encounter": {
        "reference": "Encounter/6ede7bba-1d2e-11eb-8abc-0242e805c5c5",
        "type": "Encounter"
      },
      "effectiveDateTime": "2016-07-26T00:00:00+00:00",
      "issued": "2020-11-02T20:11:23.000+00:00",
      "valueCodeableConcept": {
        "coding": [ {
          "code": "1652AAAAAAAAAAAAAAAAAAAAAAAAAAAAAAAA",
          "display": "LAMIVUDINE / NEVIRAPINE / ZIDOVUDINE"
        }, {
          "system": "https://cielterminology.org",
          "code": "1652"
        }, {
          "system": "http://snomed.info/sct/",
          "code": "424990009"
        } ],
        "text": "LAMIVUDINE / NEVIRAPINE / ZIDOVUDINE"
      }
    },
    "request": {
      "method": "PUT",
      "url": "Observation/6ede7bba-1d2e-11eb-8abc-0242e805c5c5"
    }
  }, {
    "resource": {
      "resourceType": "Observation",
      "id": "07b863c4-1d2e-11eb-8abc-0242e805c5c5",
      "meta": {
        "versionId": "1604347710000",
        "lastUpdated": "2020-11-02T20:08:30.000+00:00"
      },
      "status": "final",
      "code": {
        "coding": [ {
          "code": "5096AAAAAAAAAAAAAAAAAAAAAAAAAAAAAAAA",
          "display": "RETURN VISIT DATE"
        }, {
          "system": "https://cielterminology.org",
          "code": "5096"
        } ],
        "text": "RETURN VISIT DATE"
      },
      "subject": {
        "reference": "Patient/ad73799f-1d2c-11eb-8abc-0242e805c5c5",
        "type": "Patient",
        "display": "Magrien Magrien Magrien (OpenMRS ID: MGFNNP)"
      },
      "encounter": {
        "reference": "Encounter/07b827c7-1d2e-11eb-8abc-0242e805c5c5",
        "type": "Encounter"
      },
      "effectiveDateTime": "2016-07-26T00:00:00+00:00",
      "issued": "2020-11-02T20:08:30.000+00:00",
      "valueDateTime": "2016-08-25T00:00:00+00:00"
    },
    "request": {
      "method": "PUT",
      "url": "Observation/07b827c7-1d2e-11eb-8abc-0242e805c5c5"
    }
  }, {
    "resource": {
      "resourceType": "Observation",
      "id": "07c2d52d-1d2e-11eb-8abc-0242e805c5c5",
      "meta": {
        "versionId": "1604347710000",
        "lastUpdated": "2020-11-02T20:08:30.000+00:00"
      },
      "status": "final",
      "code": {
        "coding": [ {
          "code": "5096AAAAAAAAAAAAAAAAAAAAAAAAAAAAAAAA",
          "display": "RETURN VISIT DATE"
        }, {
          "system": "https://cielterminology.org",
          "code": "5096"
        } ],
        "text": "RETURN VISIT DATE"
      },
      "subject": {
        "reference": "Patient/ad73799f-1d2c-11eb-8abc-0242e805c5c5",
        "type": "Patient",
        "display": "Magrien Magrien Magrien (OpenMRS ID: MGFNNP)"
      },
      "encounter": {
        "reference": "Encounter/07c27544-1d2e-11eb-8abc-0242e805c5c5",
        "type": "Encounter"
      },
      "effectiveDateTime": "2016-11-30T00:00:00+00:00",
      "issued": "2020-11-02T20:08:30.000+00:00",
      "valueDateTime": "2017-01-03T00:00:00+00:00"
    },
    "request": {
      "method": "PUT",
      "url": "Observation/07c27544-1d2e-11eb-8abc-0242e805c5c5"
    }
  }, {
    "resource": {
      "resourceType": "Observation",
      "id": "07ca807c-1d2e-11eb-8abc-0242e805c5c5",
      "meta": {
        "versionId": "1604347710000",
        "lastUpdated": "2020-11-02T20:08:30.000+00:00"
      },
      "status": "final",
      "code": {
        "coding": [ {
          "code": "5096AAAAAAAAAAAAAAAAAAAAAAAAAAAAAAAA",
          "display": "RETURN VISIT DATE"
        }, {
          "system": "https://cielterminology.org",
          "code": "5096"
        } ],
        "text": "RETURN VISIT DATE"
      },
      "subject": {
        "reference": "Patient/ad73799f-1d2c-11eb-8abc-0242e805c5c5",
        "type": "Patient",
        "display": "Magrien Magrien Magrien (OpenMRS ID: MGFNNP)"
      },
      "encounter": {
        "reference": "Encounter/07ca04c7-1d2e-11eb-8abc-0242e805c5c5",
        "type": "Encounter"
      },
      "effectiveDateTime": "2017-01-04T00:00:00+00:00",
      "issued": "2020-11-02T20:08:30.000+00:00",
      "valueDateTime": "2017-02-04T00:00:00+00:00"
    },
    "request": {
      "method": "PUT",
      "url": "Observation/07ca04c7-1d2e-11eb-8abc-0242e805c5c5"
    }
  }, {
    "resource": {
      "resourceType": "Observation",
      "id": "07d202a5-1d2e-11eb-8abc-0242e805c5c5",
      "meta": {
        "versionId": "1604347710000",
        "lastUpdated": "2020-11-02T20:08:30.000+00:00"
      },
      "status": "final",
      "code": {
        "coding": [ {
          "code": "5096AAAAAAAAAAAAAAAAAAAAAAAAAAAAAAAA",
          "display": "RETURN VISIT DATE"
        }, {
          "system": "https://cielterminology.org",
          "code": "5096"
        } ],
        "text": "RETURN VISIT DATE"
      },
      "subject": {
        "reference": "Patient/ad73799f-1d2c-11eb-8abc-0242e805c5c5",
        "type": "Patient",
        "display": "Magrien Magrien Magrien (OpenMRS ID: MGFNNP)"
      },
      "encounter": {
        "reference": "Encounter/07d18bba-1d2e-11eb-8abc-0242e805c5c5",
        "type": "Encounter"
      },
      "effectiveDateTime": "2017-07-07T00:00:00+00:00",
      "issued": "2020-11-02T20:08:30.000+00:00",
      "valueDateTime": "2017-08-06T00:00:00+00:00"
    },
    "request": {
      "method": "PUT",
      "url": "Observation/07d18bba-1d2e-11eb-8abc-0242e805c5c5"
    }
  }, {
    "resource": {
      "resourceType": "Observation",
      "id": "07d9a598-1d2e-11eb-8abc-0242e805c5c5",
      "meta": {
        "versionId": "1604347710000",
        "lastUpdated": "2020-11-02T20:08:30.000+00:00"
      },
      "status": "final",
      "code": {
        "coding": [ {
          "code": "5096AAAAAAAAAAAAAAAAAAAAAAAAAAAAAAAA",
          "display": "RETURN VISIT DATE"
        }, {
          "system": "https://cielterminology.org",
          "code": "5096"
        } ],
        "text": "RETURN VISIT DATE"
      },
      "subject": {
        "reference": "Patient/ad73799f-1d2c-11eb-8abc-0242e805c5c5",
        "type": "Patient",
        "display": "Magrien Magrien Magrien (OpenMRS ID: MGFNNP)"
      },
      "encounter": {
        "reference": "Encounter/07d926ea-1d2e-11eb-8abc-0242e805c5c5",
        "type": "Encounter"
      },
      "effectiveDateTime": "2018-01-19T00:00:00+00:00",
      "issued": "2020-11-02T20:08:30.000+00:00",
      "valueDateTime": "2018-02-18T00:00:00+00:00"
    },
    "request": {
      "method": "PUT",
      "url": "Observation/07d926ea-1d2e-11eb-8abc-0242e805c5c5"
    }
  }, {
    "resource": {
      "resourceType": "Observation",
      "id": "36a22b39-1d2d-11eb-8abc-0242e805c5c5",
      "meta": {
        "versionId": "1604347359000",
        "lastUpdated": "2020-11-02T20:02:39.000+00:00"
      },
      "status": "final",
      "code": {
        "coding": [ {
          "code": "161555AAAAAAAAAAAAAAAAAAAAAAAAAAAAAA",
          "display": "Reason for discontinuation of program"
        }, {
          "system": "https://cielterminology.org",
          "code": "161555"
        } ],
        "text": "Reason for discontinuation of program"
      },
      "subject": {
        "reference": "Patient/ad73799f-1d2c-11eb-8abc-0242e805c5c5",
        "type": "Patient",
        "display": "Magrien Magrien Magrien (OpenMRS ID: MGFNNP)"
      },
      "encounter": {
        "reference": "Encounter/36a1fb21-1d2d-11eb-8abc-0242e805c5c5",
        "type": "Encounter"
      },
      "effectiveDateTime": "2018-03-16T00:00:00+00:00",
      "issued": "2020-11-02T20:02:39.000+00:00",
      "valueCodeableConcept": {
        "coding": [ {
          "code": "5240AAAAAAAAAAAAAAAAAAAAAAAAAAAAAAAA",
          "display": "Lost to followup"
        }, {
          "system": "https://cielterminology.org",
          "code": "5240"
        }, {
          "system": "http://snomed.info/sct/",
          "code": "399307001"
        } ],
        "text": "Lost to followup"
      }
    },
    "request": {
      "method": "PUT",
      "url": "Observation/36a1fb21-1d2d-11eb-8abc-0242e805c5c5"
    }
  }, {
    "resource": {
      "resourceType": "Patient",
      "id": "ad840286-1d2c-11eb-8abc-0242e805c5c5",
      "meta": {
        "versionId": "1604347129000",
        "lastUpdated": "2020-11-02T19:58:49.000+00:00"
      },
      "identifier": [ {
        "id": "ad9bfd6c-1d2c-11eb-8abc-0242e805c5c5",
        "extension": [ {
          "url": "http://fhir.openmrs.org/ext/patient/identifier#location",
          "valueReference": {
            "reference": "Location/a92f9952-1c4c-4659-893b-a6b56a16b1df",
            "type": "Location",
            "display": "Ngarua Health Centre"
          }
        } ],
        "use": "official",
        "type": {
          "coding": [ {
            "code": "dfacd928-0370-4315-99d7-6ec1c9f7ae76"
          } ],
          "text": "OpenMRS ID"
        },
        "value": "MGFNPM"
      }, {
        "id": "ad84709c-1d2c-11eb-8abc-0242e805c5c5",
        "extension": [ {
          "url": "http://fhir.openmrs.org/ext/patient/identifier#location",
          "valueReference": {
            "reference": "Location/a92f9952-1c4c-4659-893b-a6b56a16b1df",
            "type": "Location",
            "display": "Ngarua Health Centre"
          }
        } ],
        "use": "usual",
        "type": {
          "coding": [ {
            "code": "05ee9cf4-7242-4a17-b4d4-00f707265c8a"
          } ],
          "text": "Unique Patient Number"
        },
        "value": "1533900231"
      }, {
        "id": "f9706b4e-18f3-4a24-80af-2d2082f34028",
        "extension": [ {
          "url": "http://fhir.openmrs.org/ext/patient/identifier#location",
          "valueReference": {
            "reference": "Location/a92f9952-1c4c-4659-893b-a6b56a16b1df",
            "type": "Location",
            "display": "Ngarua Health Centre"
          }
        } ],
        "use": "usual",
        "type": {
          "coding": [ {
            "code": "49af6cdc-7968-4abb-bf46-de10d7f4859f"
          } ],
          "text": "National ID"
        },
        "value": "99799677"
      }, {
        "id": "f00d9eff-6620-44cc-b066-e65f6b7e266a",
        "extension": [ {
          "url": "http://fhir.openmrs.org/ext/patient/identifier#location",
          "valueReference": {
            "reference": "Location/a92f9952-1c4c-4659-893b-a6b56a16b1df",
            "type": "Location",
            "display": "Ngarua Health Centre"
          }
        } ],
        "use": "usual",
        "type": {
          "coding": [ {
            "code": "f85081e2-b4be-4e48-b3a4-7994b69bb101"
          } ],
          "text": "National Unique patient identifier"
        },
        "value": "0000000770090"
      } ],
      "active": true,
      "name": [ {
        "id": "ad842265-1d2c-11eb-8abc-0242e805c5c5",
        "family": "kinyua",
        "given": [ "kinyua", "kinyua" ]
      } ],
      "gender": "female",
      "birthDate": "1983-06-15",
      "deceasedBoolean": false,
      "address": [ {
        "id": "ad84419a-1d2c-11eb-8abc-0242e805c5c5",
        "extension": [ {
          "url": "http://fhir.openmrs.org/ext/address",
          "extension": [ {
            "url": "http://fhir.openmrs.org/ext/address#address1",
            "valueString": "200 address1"
          }, {
            "url": "http://fhir.openmrs.org/ext/address#address2",
            "valueString": "Brethren Primary"
          }, {
            "url": "http://fhir.openmrs.org/ext/address#address4",
            "valueString": "Marmanet"
          }, {
            "url": "http://fhir.openmrs.org/ext/address#address6",
            "valueString": "Marmanet"
          } ]
        } ],
        "use": "home",
        "city": "Kwa Wanjiku",
        "district": "Laikipia",
        "state": "Laikipia West"
      } ]
    },
    "request": {
      "method": "PUT",
      "url": "Patient/ad840286-1d2c-11eb-8abc-0242e805c5c5"
    }
  }, {
    "resource": {
      "resourceType": "Observation",
      "id": "6eef67ef-1d2e-11eb-8abc-0242e805c5c5",
      "meta": {
        "versionId": "1604347883000",
        "lastUpdated": "2020-11-02T20:11:23.000+00:00"
      },
      "status": "final",
      "code": {
        "coding": [ {
          "code": "1193AAAAAAAAAAAAAAAAAAAAAAAAAAAAAAAA",
          "display": "CURRENT DRUGS USED"
        }, {
          "system": "https://cielterminology.org",
          "code": "1193"
        } ],
        "text": "CURRENT DRUGS USED"
      },
      "subject": {
        "reference": "Patient/ad840286-1d2c-11eb-8abc-0242e805c5c5",
        "type": "Patient",
        "display": "kinyua kinyua kinyua (OpenMRS ID: MGFNPM)"
      },
      "encounter": {
        "reference": "Encounter/6eef1afa-1d2e-11eb-8abc-0242e805c5c5",
        "type": "Encounter"
      },
      "effectiveDateTime": "2016-06-20T00:00:00+00:00",
      "issued": "2020-11-02T20:11:23.000+00:00",
      "valueCodeableConcept": {
        "coding": [ {
          "code": "164505AAAAAAAAAAAAAAAAAAAAAAAAAAAAAA",
          "display": "Lamivudine / Efavirenz / Tenofovir"
        }, {
          "system": "https://cielterminology.org",
          "code": "164505"
        } ],
        "text": "Lamivudine / Efavirenz / Tenofovir"
      }
    },
    "request": {
      "method": "PUT",
      "url": "Observation/6eef1afa-1d2e-11eb-8abc-0242e805c5c5"
    }
  }, {
    "resource": {
      "resourceType": "Observation",
      "id": "07e1334a-1d2e-11eb-8abc-0242e805c5c5",
      "meta": {
        "versionId": "1604347710000",
        "lastUpdated": "2020-11-02T20:08:30.000+00:00"
      },
      "status": "final",
      "code": {
        "coding": [ {
          "code": "5096AAAAAAAAAAAAAAAAAAAAAAAAAAAAAAAA",
          "display": "RETURN VISIT DATE"
        }, {
          "system": "https://cielterminology.org",
          "code": "5096"
        } ],
        "text": "RETURN VISIT DATE"
      },
      "subject": {
        "reference": "Patient/ad840286-1d2c-11eb-8abc-0242e805c5c5",
        "type": "Patient",
        "display": "kinyua kinyua kinyua (OpenMRS ID: MGFNPM)"
      },
      "encounter": {
        "reference": "Encounter/07e0f6c1-1d2e-11eb-8abc-0242e805c5c5",
        "type": "Encounter"
      },
      "effectiveDateTime": "2016-06-20T00:00:00+00:00",
      "issued": "2020-11-02T20:08:30.000+00:00",
      "valueDateTime": "2016-08-19T00:00:00+00:00"
    },
    "request": {
      "method": "PUT",
      "url": "Observation/07e0f6c1-1d2e-11eb-8abc-0242e805c5c5"
    }
  }, {
    "resource": {
      "resourceType": "Observation",
      "id": "07e92eac-1d2e-11eb-8abc-0242e805c5c5",
      "meta": {
        "versionId": "1604347710000",
        "lastUpdated": "2020-11-02T20:08:30.000+00:00"
      },
      "status": "final",
      "code": {
        "coding": [ {
          "code": "5096AAAAAAAAAAAAAAAAAAAAAAAAAAAAAAAA",
          "display": "RETURN VISIT DATE"
        }, {
          "system": "https://cielterminology.org",
          "code": "5096"
        } ],
        "text": "RETURN VISIT DATE"
      },
      "subject": {
        "reference": "Patient/ad840286-1d2c-11eb-8abc-0242e805c5c5",
        "type": "Patient",
        "display": "kinyua kinyua kinyua (OpenMRS ID: MGFNPM)"
      },
      "encounter": {
        "reference": "Encounter/07e89391-1d2e-11eb-8abc-0242e805c5c5",
        "type": "Encounter"
      },
      "effectiveDateTime": "2017-11-16T00:00:00+00:00",
      "issued": "2020-11-02T20:08:30.000+00:00",
      "valueDateTime": "2018-01-15T00:00:00+00:00"
    },
    "request": {
      "method": "PUT",
      "url": "Observation/07e89391-1d2e-11eb-8abc-0242e805c5c5"
    }
  }, {
    "resource": {
      "resourceType": "Observation",
      "id": "07f49f23-1d2e-11eb-8abc-0242e805c5c5",
      "meta": {
        "versionId": "1604347710000",
        "lastUpdated": "2020-11-02T20:08:30.000+00:00"
      },
      "status": "final",
      "code": {
        "coding": [ {
          "code": "5096AAAAAAAAAAAAAAAAAAAAAAAAAAAAAAAA",
          "display": "RETURN VISIT DATE"
        }, {
          "system": "https://cielterminology.org",
          "code": "5096"
        } ],
        "text": "RETURN VISIT DATE"
      },
      "subject": {
        "reference": "Patient/ad840286-1d2c-11eb-8abc-0242e805c5c5",
        "type": "Patient",
        "display": "kinyua kinyua kinyua (OpenMRS ID: MGFNPM)"
      },
      "encounter": {
        "reference": "Encounter/07f415f5-1d2e-11eb-8abc-0242e805c5c5",
        "type": "Encounter"
      },
      "effectiveDateTime": "2018-04-20T00:00:00+00:00",
      "issued": "2020-11-02T20:08:30.000+00:00",
      "valueDateTime": "2018-05-20T00:00:00+00:00"
    },
    "request": {
      "method": "PUT",
      "url": "Observation/07f415f5-1d2e-11eb-8abc-0242e805c5c5"
    }
  }, {
    "resource": {
      "resourceType": "Observation",
      "id": "07fc3938-1d2e-11eb-8abc-0242e805c5c5",
      "meta": {
        "versionId": "1604347710000",
        "lastUpdated": "2020-11-02T20:08:30.000+00:00"
      },
      "status": "final",
      "code": {
        "coding": [ {
          "code": "5096AAAAAAAAAAAAAAAAAAAAAAAAAAAAAAAA",
          "display": "RETURN VISIT DATE"
        }, {
          "system": "https://cielterminology.org",
          "code": "5096"
        } ],
        "text": "RETURN VISIT DATE"
      },
      "subject": {
        "reference": "Patient/ad840286-1d2c-11eb-8abc-0242e805c5c5",
        "type": "Patient",
        "display": "kinyua kinyua kinyua (OpenMRS ID: MGFNPM)"
      },
      "encounter": {
        "reference": "Encounter/07fbb929-1d2e-11eb-8abc-0242e805c5c5",
        "type": "Encounter"
      },
      "effectiveDateTime": "2018-05-18T00:00:00+00:00",
      "issued": "2020-11-02T20:08:30.000+00:00",
      "valueDateTime": "2018-06-17T00:00:00+00:00"
    },
    "request": {
      "method": "PUT",
      "url": "Observation/07fbb929-1d2e-11eb-8abc-0242e805c5c5"
    }
  }, {
    "resource": {
      "resourceType": "Observation",
      "id": "0803c582-1d2e-11eb-8abc-0242e805c5c5",
      "meta": {
        "versionId": "1604347710000",
        "lastUpdated": "2020-11-02T20:08:30.000+00:00"
      },
      "status": "final",
      "code": {
        "coding": [ {
          "code": "5096AAAAAAAAAAAAAAAAAAAAAAAAAAAAAAAA",
          "display": "RETURN VISIT DATE"
        }, {
          "system": "https://cielterminology.org",
          "code": "5096"
        } ],
        "text": "RETURN VISIT DATE"
      },
      "subject": {
        "reference": "Patient/ad840286-1d2c-11eb-8abc-0242e805c5c5",
        "type": "Patient",
        "display": "kinyua kinyua kinyua (OpenMRS ID: MGFNPM)"
      },
      "encounter": {
        "reference": "Encounter/08034698-1d2e-11eb-8abc-0242e805c5c5",
        "type": "Encounter"
      },
      "effectiveDateTime": "2018-07-19T00:00:00+00:00",
      "issued": "2020-11-02T20:08:30.000+00:00",
      "valueDateTime": "2018-08-18T00:00:00+00:00"
    },
    "request": {
      "method": "PUT",
      "url": "Observation/08034698-1d2e-11eb-8abc-0242e805c5c5"
    }
  }, {
    "resource": {
      "resourceType": "Observation",
      "id": "080b8fb6-1d2e-11eb-8abc-0242e805c5c5",
      "meta": {
        "versionId": "1604347710000",
        "lastUpdated": "2020-11-02T20:08:30.000+00:00"
      },
      "status": "final",
      "code": {
        "coding": [ {
          "code": "5096AAAAAAAAAAAAAAAAAAAAAAAAAAAAAAAA",
          "display": "RETURN VISIT DATE"
        }, {
          "system": "https://cielterminology.org",
          "code": "5096"
        } ],
        "text": "RETURN VISIT DATE"
      },
      "subject": {
        "reference": "Patient/ad840286-1d2c-11eb-8abc-0242e805c5c5",
        "type": "Patient",
        "display": "kinyua kinyua kinyua (OpenMRS ID: MGFNPM)"
      },
      "encounter": {
        "reference": "Encounter/080b0908-1d2e-11eb-8abc-0242e805c5c5",
        "type": "Encounter"
      },
      "effectiveDateTime": "2018-10-01T00:00:00+00:00",
      "issued": "2020-11-02T20:08:30.000+00:00",
      "valueDateTime": "2018-10-05T00:00:00+00:00"
    },
    "request": {
      "method": "PUT",
      "url": "Observation/080b0908-1d2e-11eb-8abc-0242e805c5c5"
    }
  }, {
    "resource": {
      "resourceType": "Observation",
      "id": "0812810b-1d2e-11eb-8abc-0242e805c5c5",
      "meta": {
        "versionId": "1604347710000",
        "lastUpdated": "2020-11-02T20:08:30.000+00:00"
      },
      "status": "final",
      "code": {
        "coding": [ {
          "code": "5096AAAAAAAAAAAAAAAAAAAAAAAAAAAAAAAA",
          "display": "RETURN VISIT DATE"
        }, {
          "system": "https://cielterminology.org",
          "code": "5096"
        } ],
        "text": "RETURN VISIT DATE"
      },
      "subject": {
        "reference": "Patient/ad840286-1d2c-11eb-8abc-0242e805c5c5",
        "type": "Patient",
        "display": "kinyua kinyua kinyua (OpenMRS ID: MGFNPM)"
      },
      "encounter": {
        "reference": "Encounter/08125051-1d2e-11eb-8abc-0242e805c5c5",
        "type": "Encounter"
      },
      "effectiveDateTime": "2018-10-04T00:00:00+00:00",
      "issued": "2020-11-02T20:08:30.000+00:00",
      "valueDateTime": "2018-11-06T00:00:00+00:00"
    },
    "request": {
      "method": "PUT",
      "url": "Observation/08125051-1d2e-11eb-8abc-0242e805c5c5"
    }
  }, {
    "resource": {
      "resourceType": "Observation",
      "id": "081fd968-1d2e-11eb-8abc-0242e805c5c5",
      "meta": {
        "versionId": "1604347710000",
        "lastUpdated": "2020-11-02T20:08:30.000+00:00"
      },
      "status": "final",
      "code": {
        "coding": [ {
          "code": "5096AAAAAAAAAAAAAAAAAAAAAAAAAAAAAAAA",
          "display": "RETURN VISIT DATE"
        }, {
          "system": "https://cielterminology.org",
          "code": "5096"
        } ],
        "text": "RETURN VISIT DATE"
      },
      "subject": {
        "reference": "Patient/ad840286-1d2c-11eb-8abc-0242e805c5c5",
        "type": "Patient",
        "display": "kinyua kinyua kinyua (OpenMRS ID: MGFNPM)"
      },
      "encounter": {
        "reference": "Encounter/081f59e5-1d2e-11eb-8abc-0242e805c5c5",
        "type": "Encounter"
      },
      "effectiveDateTime": "2018-11-06T00:00:00+00:00",
      "issued": "2020-11-02T20:08:30.000+00:00",
      "valueDateTime": "2018-12-06T00:00:00+00:00"
    },
    "request": {
      "method": "PUT",
      "url": "Observation/081f59e5-1d2e-11eb-8abc-0242e805c5c5"
    }
  }, {
    "resource": {
      "resourceType": "Observation",
      "id": "0827d72a-1d2e-11eb-8abc-0242e805c5c5",
      "meta": {
        "versionId": "1604347710000",
        "lastUpdated": "2020-11-02T20:08:30.000+00:00"
      },
      "status": "final",
      "code": {
        "coding": [ {
          "code": "5096AAAAAAAAAAAAAAAAAAAAAAAAAAAAAAAA",
          "display": "RETURN VISIT DATE"
        }, {
          "system": "https://cielterminology.org",
          "code": "5096"
        } ],
        "text": "RETURN VISIT DATE"
      },
      "subject": {
        "reference": "Patient/ad840286-1d2c-11eb-8abc-0242e805c5c5",
        "type": "Patient",
        "display": "kinyua kinyua kinyua (OpenMRS ID: MGFNPM)"
      },
      "encounter": {
        "reference": "Encounter/08276113-1d2e-11eb-8abc-0242e805c5c5",
        "type": "Encounter"
      },
      "effectiveDateTime": "2019-01-08T00:00:00+00:00",
      "issued": "2020-11-02T20:08:30.000+00:00",
      "valueDateTime": "2019-02-07T00:00:00+00:00"
    },
    "request": {
      "method": "PUT",
      "url": "Observation/08276113-1d2e-11eb-8abc-0242e805c5c5"
    }
  }, {
    "resource": {
      "resourceType": "Observation",
      "id": "082f86b2-1d2e-11eb-8abc-0242e805c5c5",
      "meta": {
        "versionId": "1604347710000",
        "lastUpdated": "2020-11-02T20:08:30.000+00:00"
      },
      "status": "final",
      "code": {
        "coding": [ {
          "code": "5096AAAAAAAAAAAAAAAAAAAAAAAAAAAAAAAA",
          "display": "RETURN VISIT DATE"
        }, {
          "system": "https://cielterminology.org",
          "code": "5096"
        } ],
        "text": "RETURN VISIT DATE"
      },
      "subject": {
        "reference": "Patient/ad840286-1d2c-11eb-8abc-0242e805c5c5",
        "type": "Patient",
        "display": "kinyua kinyua kinyua (OpenMRS ID: MGFNPM)"
      },
      "encounter": {
        "reference": "Encounter/082f0a44-1d2e-11eb-8abc-0242e805c5c5",
        "type": "Encounter"
      },
      "effectiveDateTime": "2019-03-12T00:00:00+00:00",
      "issued": "2020-11-02T20:08:30.000+00:00",
      "valueDateTime": "2019-04-18T00:00:00+00:00"
    },
    "request": {
      "method": "PUT",
      "url": "Observation/082f0a44-1d2e-11eb-8abc-0242e805c5c5"
    }
  }, {
    "resource": {
      "resourceType": "Observation",
      "id": "0837419d-1d2e-11eb-8abc-0242e805c5c5",
      "meta": {
        "versionId": "1604347710000",
        "lastUpdated": "2020-11-02T20:08:30.000+00:00"
      },
      "status": "final",
      "code": {
        "coding": [ {
          "code": "5096AAAAAAAAAAAAAAAAAAAAAAAAAAAAAAAA",
          "display": "RETURN VISIT DATE"
        }, {
          "system": "https://cielterminology.org",
          "code": "5096"
        } ],
        "text": "RETURN VISIT DATE"
      },
      "subject": {
        "reference": "Patient/ad840286-1d2c-11eb-8abc-0242e805c5c5",
        "type": "Patient",
        "display": "kinyua kinyua kinyua (OpenMRS ID: MGFNPM)"
      },
      "encounter": {
        "reference": "Encounter/083695dd-1d2e-11eb-8abc-0242e805c5c5",
        "type": "Encounter"
      },
      "effectiveDateTime": "2020-01-15T00:00:00+00:00",
      "issued": "2020-11-02T20:08:30.000+00:00",
      "valueDateTime": "2020-06-13T00:00:00+00:00"
    },
    "request": {
      "method": "PUT",
      "url": "Observation/083695dd-1d2e-11eb-8abc-0242e805c5c5"
    }
  }, {
    "resource": {
      "resourceType": "Observation",
      "id": "083f5b43-1d2e-11eb-8abc-0242e805c5c5",
      "meta": {
        "versionId": "1604347710000",
        "lastUpdated": "2020-11-02T20:08:30.000+00:00"
      },
      "status": "final",
      "code": {
        "coding": [ {
          "code": "5096AAAAAAAAAAAAAAAAAAAAAAAAAAAAAAAA",
          "display": "RETURN VISIT DATE"
        }, {
          "system": "https://cielterminology.org",
          "code": "5096"
        } ],
        "text": "RETURN VISIT DATE"
      },
      "subject": {
        "reference": "Patient/ad840286-1d2c-11eb-8abc-0242e805c5c5",
        "type": "Patient",
        "display": "kinyua kinyua kinyua (OpenMRS ID: MGFNPM)"
      },
      "encounter": {
        "reference": "Encounter/083e444d-1d2e-11eb-8abc-0242e805c5c5",
        "type": "Encounter"
      },
      "effectiveDateTime": "2020-05-28T00:00:00+00:00",
      "issued": "2020-11-02T20:08:30.000+00:00",
      "valueDateTime": "2020-11-04T00:00:00+00:00"
    },
    "request": {
      "method": "PUT",
      "url": "Observation/083e444d-1d2e-11eb-8abc-0242e805c5c5"
    }
  }, {
    "resource": {
      "resourceType": "Observation",
      "id": "d9896a18-1692-457e-933a-2a9fea0a48bc",
      "meta": {
        "versionId": "1607943148000",
        "lastUpdated": "2020-12-14T10:52:28.000+00:00"
      },
      "status": "final",
      "code": {
        "coding": [ {
          "code": "5096AAAAAAAAAAAAAAAAAAAAAAAAAAAAAAAA",
          "display": "RETURN VISIT DATE"
        }, {
          "system": "https://cielterminology.org",
          "code": "5096"
        } ],
        "text": "RETURN VISIT DATE"
      },
      "subject": {
        "reference": "Patient/ad840286-1d2c-11eb-8abc-0242e805c5c5",
        "type": "Patient",
        "display": "kinyua kinyua kinyua (OpenMRS ID: MGFNPM)"
      },
      "encounter": {
        "reference": "Encounter/7095c3e5-5ab0-4607-ad96-748c89914ad6",
        "type": "Encounter"
      },
      "effectiveDateTime": "2020-11-03T10:50:00+00:00",
      "issued": "2020-12-14T10:52:28.000+00:00",
      "valueDateTime": "2021-02-18T00:00:00+00:00"
    },
    "request": {
      "method": "PUT",
      "url": "Observation/7095c3e5-5ab0-4607-ad96-748c89914ad6"
    }
  }, {
    "resource": {
      "resourceType": "Observation",
      "id": "8f151cf4-5c87-456d-8f81-a46662a7b02c",
      "meta": {
        "versionId": "1611651697000",
        "lastUpdated": "2021-01-26T09:01:37.000+00:00"
      },
      "status": "final",
      "code": {
        "coding": [ {
          "code": "5096AAAAAAAAAAAAAAAAAAAAAAAAAAAAAAAA",
          "display": "RETURN VISIT DATE"
        }, {
          "system": "https://cielterminology.org",
          "code": "5096"
        } ],
        "text": "RETURN VISIT DATE"
      },
      "subject": {
        "reference": "Patient/ad840286-1d2c-11eb-8abc-0242e805c5c5",
        "type": "Patient",
        "display": "kinyua kinyua kinyua (OpenMRS ID: MGFNPM)"
      },
      "encounter": {
        "reference": "Encounter/54f5beb1-930e-4b4d-a207-5d64b3e37958",
        "type": "Encounter"
      },
      "effectiveDateTime": "2021-01-25T09:00:00+00:00",
      "issued": "2021-01-26T09:01:37.000+00:00",
      "valueDateTime": "2021-04-27T00:00:00+00:00"
    },
    "request": {
      "method": "PUT",
      "url": "Observation/54f5beb1-930e-4b4d-a207-5d64b3e37958"
    }
  }, {
    "resource": {
      "resourceType": "Observation",
      "id": "910417ed-0b23-4967-bd77-abc44739cbed",
      "meta": {
        "versionId": "1624282424000",
        "lastUpdated": "2021-06-21T13:33:44.000+00:00"
      },
      "status": "final",
      "code": {
        "coding": [ {
          "code": "5096AAAAAAAAAAAAAAAAAAAAAAAAAAAAAAAA",
          "display": "RETURN VISIT DATE"
        }, {
          "system": "https://cielterminology.org",
          "code": "5096"
        } ],
        "text": "RETURN VISIT DATE"
      },
      "subject": {
        "reference": "Patient/ad840286-1d2c-11eb-8abc-0242e805c5c5",
        "type": "Patient",
        "display": "kinyua kinyua kinyua (OpenMRS ID: MGFNPM)"
      },
      "encounter": {
        "reference": "Encounter/b084b6f6-73e2-42b6-ab90-b8d451de672a",
        "type": "Encounter"
      },
      "effectiveDateTime": "2021-06-21T13:33:09+00:00",
      "issued": "2021-06-21T13:33:44.000+00:00",
      "valueDateTime": "2021-06-30T00:00:00+00:00"
    },
    "request": {
      "method": "PUT",
      "url": "Observation/b084b6f6-73e2-42b6-ab90-b8d451de672a"
    }
  }, {
    "resource": {
      "resourceType": "Observation",
      "id": "2ea637ed-b069-4d80-b202-f244a6022ecd",
      "meta": {
        "versionId": "1624956184000",
        "lastUpdated": "2021-06-29T08:43:04.000+00:00"
      },
      "status": "final",
      "code": {
        "coding": [ {
          "code": "5096AAAAAAAAAAAAAAAAAAAAAAAAAAAAAAAA",
          "display": "RETURN VISIT DATE"
        }, {
          "system": "https://cielterminology.org",
          "code": "5096"
        } ],
        "text": "RETURN VISIT DATE"
      },
      "subject": {
        "reference": "Patient/ad840286-1d2c-11eb-8abc-0242e805c5c5",
        "type": "Patient",
        "display": "kinyua kinyua kinyua (OpenMRS ID: MGFNPM)"
      },
      "encounter": {
        "reference": "Encounter/6988c892-995c-42c1-ae3d-ef9794165b8e",
        "type": "Encounter"
      },
      "effectiveDateTime": "2021-06-29T08:41:52+00:00",
      "issued": "2021-06-29T08:43:04.000+00:00",
      "valueDateTime": "2021-10-12T00:00:00+00:00"
    },
    "request": {
      "method": "PUT",
      "url": "Observation/6988c892-995c-42c1-ae3d-ef9794165b8e"
    }
  }, {
    "resource": {
      "resourceType": "Observation",
      "id": "837c1756-1937-40c9-a9a6-b84bfc7ce9d2",
      "meta": {
        "versionId": "1634116637000",
        "lastUpdated": "2021-10-13T09:17:17.000+00:00"
      },
      "status": "final",
      "code": {
        "coding": [ {
          "code": "5096AAAAAAAAAAAAAAAAAAAAAAAAAAAAAAAA",
          "display": "RETURN VISIT DATE"
        }, {
          "system": "https://cielterminology.org",
          "code": "5096"
        } ],
        "text": "RETURN VISIT DATE"
      },
      "subject": {
        "reference": "Patient/ad840286-1d2c-11eb-8abc-0242e805c5c5",
        "type": "Patient",
        "display": "kinyua kinyua kinyua (OpenMRS ID: MGFNPM)"
      },
      "encounter": {
        "reference": "Encounter/61ae445a-1790-4af4-a66b-4aade94e1830",
        "type": "Encounter"
      },
      "effectiveDateTime": "2021-10-13T09:16:48+00:00",
      "issued": "2021-10-13T09:17:17.000+00:00",
      "valueDateTime": "2022-01-11T00:00:00+00:00"
    },
    "request": {
      "method": "PUT",
      "url": "Observation/61ae445a-1790-4af4-a66b-4aade94e1830"
    }
  }, {
    "resource": {
      "resourceType": "Observation",
      "id": "0e389d64-9175-4390-9814-8a684f75daf0",
      "meta": {
        "versionId": "1642758813000",
        "lastUpdated": "2022-01-21T09:53:33.000+00:00"
      },
      "status": "final",
      "code": {
        "coding": [ {
          "code": "5096AAAAAAAAAAAAAAAAAAAAAAAAAAAAAAAA",
          "display": "RETURN VISIT DATE"
        }, {
          "system": "https://cielterminology.org",
          "code": "5096"
        } ],
        "text": "RETURN VISIT DATE"
      },
      "subject": {
        "reference": "Patient/ad840286-1d2c-11eb-8abc-0242e805c5c5",
        "type": "Patient",
        "display": "kinyua kinyua kinyua (OpenMRS ID: MGFNPM)"
      },
      "encounter": {
        "reference": "Encounter/456e521b-1913-49c6-9502-53aefaecbe8f",
        "type": "Encounter"
      },
      "effectiveDateTime": "2022-01-21T09:52:00+00:00",
      "issued": "2022-01-21T09:53:33.000+00:00",
      "valueDateTime": "2022-04-12T00:00:00+00:00"
    },
    "request": {
      "method": "PUT",
      "url": "Observation/456e521b-1913-49c6-9502-53aefaecbe8f"
    }
  }, {
    "resource": {
      "resourceType": "Observation",
      "id": "a80553af-4d0a-438c-9bcc-2fb726a5edea",
      "meta": {
        "versionId": "1667210734000",
        "lastUpdated": "2022-10-31T10:05:34.000+00:00"
      },
      "status": "final",
      "code": {
        "coding": [ {
          "code": "5096AAAAAAAAAAAAAAAAAAAAAAAAAAAAAAAA",
          "display": "RETURN VISIT DATE"
        }, {
          "system": "https://cielterminology.org",
          "code": "5096"
        } ],
        "text": "RETURN VISIT DATE"
      },
      "subject": {
        "reference": "Patient/ad840286-1d2c-11eb-8abc-0242e805c5c5",
        "type": "Patient",
        "display": "kinyua kinyua kinyua (OpenMRS ID: MGFNPM)"
      },
      "encounter": {
        "reference": "Encounter/f75e1b92-9d7e-4408-b1b8-8c5c440ab8a1",
        "type": "Encounter"
      },
      "effectiveDateTime": "2022-09-02T10:03:00+00:00",
      "issued": "2022-10-31T10:05:34.000+00:00",
      "valueDateTime": "2022-11-22T00:00:00+00:00"
    },
    "request": {
      "method": "PUT",
      "url": "Observation/f75e1b92-9d7e-4408-b1b8-8c5c440ab8a1"
    }
  }, {
    "resource": {
      "resourceType": "Observation",
      "id": "f4566b3b-4a37-4f59-8c34-4e17c1b2a88b",
      "meta": {
        "versionId": "1669288901000",
        "lastUpdated": "2022-11-24T11:21:41.000+00:00"
      },
      "status": "final",
      "code": {
        "coding": [ {
          "code": "5096AAAAAAAAAAAAAAAAAAAAAAAAAAAAAAAA",
          "display": "RETURN VISIT DATE"
        }, {
          "system": "https://cielterminology.org",
          "code": "5096"
        } ],
        "text": "RETURN VISIT DATE"
      },
      "subject": {
        "reference": "Patient/ad840286-1d2c-11eb-8abc-0242e805c5c5",
        "type": "Patient",
        "display": "kinyua kinyua kinyua (OpenMRS ID: MGFNPM)"
      },
      "encounter": {
        "reference": "Encounter/09ebce2e-1d05-49b1-b070-f0002b819c3c",
        "type": "Encounter"
      },
      "effectiveDateTime": "2022-11-22T11:20:00+00:00",
      "issued": "2022-11-24T11:21:41.000+00:00",
      "valueDateTime": "2023-02-16T00:00:00+00:00"
    },
    "request": {
      "method": "PUT",
      "url": "Observation/09ebce2e-1d05-49b1-b070-f0002b819c3c"
    }
  }, {
    "resource": {
      "resourceType": "Observation",
      "id": "da32cbfb-6535-4632-b5ad-8144f8a9f5d9",
      "meta": {
        "versionId": "1676562482000",
        "lastUpdated": "2023-02-16T15:48:02.000+00:00"
      },
      "status": "final",
      "code": {
        "coding": [ {
          "code": "5096AAAAAAAAAAAAAAAAAAAAAAAAAAAAAAAA",
          "display": "RETURN VISIT DATE"
        }, {
          "system": "https://cielterminology.org",
          "code": "5096"
        } ],
        "text": "RETURN VISIT DATE"
      },
      "subject": {
        "reference": "Patient/ad840286-1d2c-11eb-8abc-0242e805c5c5",
        "type": "Patient",
        "display": "kinyua kinyua kinyua (OpenMRS ID: MGFNPM)"
      },
      "encounter": {
        "reference": "Encounter/f5d9ee1f-c4ce-47f9-b9c2-f53225ea7218",
        "type": "Encounter"
      },
      "effectiveDateTime": "2023-02-16T14:57:57+00:00",
      "issued": "2023-02-16T15:48:02.000+00:00",
      "valueDateTime": "2023-04-19T00:00:00+00:00"
    },
    "request": {
      "method": "PUT",
      "url": "Observation/f5d9ee1f-c4ce-47f9-b9c2-f53225ea7218"
    }
  }, {
    "resource": {
      "resourceType": "Observation",
      "id": "a06db142-7bb2-40db-bf3c-71b09bb72d41",
      "meta": {
        "versionId": "1682336569000",
        "lastUpdated": "2023-04-24T11:42:49.000+00:00"
      },
      "status": "final",
      "code": {
        "coding": [ {
          "code": "5096AAAAAAAAAAAAAAAAAAAAAAAAAAAAAAAA",
          "display": "RETURN VISIT DATE"
        }, {
          "system": "https://cielterminology.org",
          "code": "5096"
        } ],
        "text": "RETURN VISIT DATE"
      },
      "subject": {
        "reference": "Patient/ad840286-1d2c-11eb-8abc-0242e805c5c5",
        "type": "Patient",
        "display": "kinyua kinyua kinyua (OpenMRS ID: MGFNPM)"
      },
      "encounter": {
        "reference": "Encounter/d4a4286b-84c5-4c40-b4af-346f1200c7ea",
        "type": "Encounter"
      },
      "effectiveDateTime": "2023-04-24T11:39:47+00:00",
      "issued": "2023-04-24T11:42:49.000+00:00",
      "valueDateTime": "2023-08-30T00:00:00+00:00"
    },
    "request": {
      "method": "PUT",
      "url": "Observation/d4a4286b-84c5-4c40-b4af-346f1200c7ea"
    }
  }, {
    "resource": {
      "resourceType": "Observation",
      "id": "e2e4716c-5102-4b01-864e-b12a81ff22c2",
      "meta": {
        "versionId": "1693818453000",
        "lastUpdated": "2023-09-04T09:07:33.000+00:00"
      },
      "status": "final",
      "code": {
        "coding": [ {
          "code": "5096AAAAAAAAAAAAAAAAAAAAAAAAAAAAAAAA",
          "display": "RETURN VISIT DATE"
        }, {
          "system": "https://cielterminology.org",
          "code": "5096"
        } ],
        "text": "RETURN VISIT DATE"
      },
      "subject": {
        "reference": "Patient/ad840286-1d2c-11eb-8abc-0242e805c5c5",
        "type": "Patient",
        "display": "kinyua kinyua kinyua (OpenMRS ID: MGFNPM)"
      },
      "encounter": {
        "reference": "Encounter/263a67c3-f7e1-4213-94be-78919b4ad2e8",
        "type": "Encounter"
      },
      "effectiveDateTime": "2023-08-30T09:05:00+00:00",
      "issued": "2023-09-04T09:07:33.000+00:00",
      "valueDateTime": "2023-11-30T00:00:00+00:00"
    },
    "request": {
      "method": "PUT",
      "url": "Observation/263a67c3-f7e1-4213-94be-78919b4ad2e8"
    }
  }, {
    "resource": {
      "resourceType": "Patient",
      "id": "ad9c1109-1d2c-11eb-8abc-0242e805c5c5",
      "meta": {
        "versionId": "1604347129000",
        "lastUpdated": "2020-11-02T19:58:49.000+00:00"
      },
      "identifier": [ {
        "id": "adadaa49-1d2c-11eb-8abc-0242e805c5c5",
        "extension": [ {
          "url": "http://fhir.openmrs.org/ext/patient/identifier#location",
          "valueReference": {
            "reference": "Location/a92f9952-1c4c-4659-893b-a6b56a16b1df",
            "type": "Location",
            "display": "Ngarua Health Centre"
          }
        } ],
        "use": "official",
        "type": {
          "coding": [ {
            "code": "dfacd928-0370-4315-99d7-6ec1c9f7ae76"
          } ],
          "text": "OpenMRS ID"
        },
        "value": "MGFNRK"
      }, {
        "id": "ad9c2fc1-1d2c-11eb-8abc-0242e805c5c5",
        "extension": [ {
          "url": "http://fhir.openmrs.org/ext/patient/identifier#location",
          "valueReference": {
            "reference": "Location/a92f9952-1c4c-4659-893b-a6b56a16b1df",
            "type": "Location",
            "display": "Ngarua Health Centre"
          }
        } ],
        "use": "usual",
        "type": {
          "coding": [ {
            "code": "05ee9cf4-7242-4a17-b4d4-00f707265c8a"
          } ],
          "text": "Unique Patient Number"
        },
        "value": "1533900236"
      }, {
        "id": "4cb979ac-aee8-4835-aaee-3c5f390e4e6d",
        "extension": [ {
          "url": "http://fhir.openmrs.org/ext/patient/identifier#location",
          "valueReference": {
            "reference": "Location/a92f9952-1c4c-4659-893b-a6b56a16b1df",
            "type": "Location",
            "display": "Ngarua Health Centre"
          }
        } ],
        "use": "usual",
        "type": {
          "coding": [ {
            "code": "49af6cdc-7968-4abb-bf46-de10d7f4859f"
          } ],
          "text": "National ID"
        },
        "value": "97888698"
      }, {
        "id": "982b80da-71b5-4ab0-a197-47e97972af9f",
        "extension": [ {
          "url": "http://fhir.openmrs.org/ext/patient/identifier#location",
          "valueReference": {
            "reference": "Location/a92f9952-1c4c-4659-893b-a6b56a16b1df",
            "type": "Location",
            "display": "Ngarua Health Centre"
          }
        } ],
        "use": "usual",
        "type": {
          "coding": [ {
            "code": "f85081e2-b4be-4e48-b3a4-7994b69bb101"
          } ],
          "text": "National Unique patient identifier"
        },
        "value": "0000000770000"
      } ],
      "active": true,
      "name": [ {
        "id": "ad9c1b88-1d2c-11eb-8abc-0242e805c5c5",
        "family": "mumo",
        "given": [ "mumo", "mumo" ]
      } ],
      "gender": "female",
      "birthDate": "1984-06-28",
      "deceasedBoolean": false,
      "address": [ {
        "id": "d01be662-6229-4b9f-82ea-474005ed607d",
        "extension": [ {
          "url": "http://fhir.openmrs.org/ext/address",
          "extension": [ {
            "url": "http://fhir.openmrs.org/ext/address#address1",
            "valueString": "201 address1"
          }, {
            "url": "http://fhir.openmrs.org/ext/address#address2",
            "valueString": "AIC Sinendet church"
          }, {
            "url": "http://fhir.openmrs.org/ext/address#address4",
            "valueString": "Marmanet"
          }, {
            "url": "http://fhir.openmrs.org/ext/address#address5",
            "valueString": "Kimoriot"
          }, {
            "url": "http://fhir.openmrs.org/ext/address#address6",
            "valueString": "Kimoriot"
          } ]
        } ],
        "use": "home",
        "city": "kabagenge",
        "district": "Laikipia",
        "state": "Laikipia West"
      } ]
    },
    "request": {
      "method": "PUT",
      "url": "Patient/ad9c1109-1d2c-11eb-8abc-0242e805c5c5"
    }
  }, {
    "resource": {
      "resourceType": "Observation",
      "id": "b5532278-73f8-4143-9856-bf2115cacaf1",
      "meta": {
        "versionId": "1650978452000",
        "lastUpdated": "2022-04-26T13:07:32.000+00:00"
      },
      "status": "final",
      "code": {
        "coding": [ {
          "code": "160540AAAAAAAAAAAAAAAAAAAAAAAAAAAAAA",
          "display": "Method of enrollment"
        }, {
          "system": "http://loinc.org",
          "code": "45252-4"
        }, {
          "system": "https://cielterminology.org",
          "code": "160540"
        } ],
        "text": "Method of enrollment"
      },
      "subject": {
        "reference": "Patient/ad9c1109-1d2c-11eb-8abc-0242e805c5c5",
        "type": "Patient",
        "display": "mumo mumo mumo (OpenMRS ID: MGFNRK)"
      },
      "encounter": {
        "reference": "Encounter/ff648052-1d2c-11eb-8abc-0242e805c5c5",
        "type": "Encounter"
      },
      "effectiveDateTime": "2015-09-02T00:00:00+00:00",
      "issued": "2022-04-26T13:07:32.000+00:00",
      "valueCodeableConcept": {
        "coding": [ {
          "code": "160542AAAAAAAAAAAAAAAAAAAAAAAAAAAAAA",
          "display": "Outpatient department"
        }, {
          "system": "https://cielterminology.org",
          "code": "160542"
        }, {
          "system": "http://snomed.info/sct/",
          "code": "33022008"
        } ],
        "text": "Outpatient department"
      }
    },
    "request": {
      "method": "PUT",
      "url": "Observation/ff648052-1d2c-11eb-8abc-0242e805c5c5"
    }
  }, {
    "resource": {
      "resourceType": "Observation",
      "id": "6ef5a7c0-1d2e-11eb-8abc-0242e805c5c5",
      "meta": {
        "versionId": "1604347883000",
        "lastUpdated": "2020-11-02T20:11:23.000+00:00"
      },
      "status": "final",
      "code": {
        "coding": [ {
          "code": "1193AAAAAAAAAAAAAAAAAAAAAAAAAAAAAAAA",
          "display": "CURRENT DRUGS USED"
        }, {
          "system": "https://cielterminology.org",
          "code": "1193"
        } ],
        "text": "CURRENT DRUGS USED"
      },
      "subject": {
        "reference": "Patient/ad9c1109-1d2c-11eb-8abc-0242e805c5c5",
        "type": "Patient",
        "display": "mumo mumo mumo (OpenMRS ID: MGFNRK)"
      },
      "encounter": {
        "reference": "Encounter/6ef56a8a-1d2e-11eb-8abc-0242e805c5c5",
        "type": "Encounter"
      },
      "effectiveDateTime": "2016-07-26T00:00:00+00:00",
      "issued": "2020-11-02T20:11:23.000+00:00",
      "valueCodeableConcept": {
        "coding": [ {
          "code": "164505AAAAAAAAAAAAAAAAAAAAAAAAAAAAAA",
          "display": "Lamivudine / Efavirenz / Tenofovir"
        }, {
          "system": "https://cielterminology.org",
          "code": "164505"
        } ],
        "text": "Lamivudine / Efavirenz / Tenofovir"
      }
    },
    "request": {
      "method": "PUT",
      "url": "Observation/6ef56a8a-1d2e-11eb-8abc-0242e805c5c5"
    }
  }, {
    "resource": {
      "resourceType": "Observation",
      "id": "084f199b-1d2e-11eb-8abc-0242e805c5c5",
      "meta": {
        "versionId": "1604347711000",
        "lastUpdated": "2020-11-02T20:08:31.000+00:00"
      },
      "status": "final",
      "code": {
        "coding": [ {
          "code": "5096AAAAAAAAAAAAAAAAAAAAAAAAAAAAAAAA",
          "display": "RETURN VISIT DATE"
        }, {
          "system": "https://cielterminology.org",
          "code": "5096"
        } ],
        "text": "RETURN VISIT DATE"
      },
      "subject": {
        "reference": "Patient/ad9c1109-1d2c-11eb-8abc-0242e805c5c5",
        "type": "Patient",
        "display": "mumo mumo mumo (OpenMRS ID: MGFNRK)"
      },
      "encounter": {
        "reference": "Encounter/084ed8f6-1d2e-11eb-8abc-0242e805c5c5",
        "type": "Encounter"
      },
      "effectiveDateTime": "2016-07-26T00:00:00+00:00",
      "issued": "2020-11-02T20:08:31.000+00:00",
      "valueDateTime": "2016-09-24T00:00:00+00:00"
    },
    "request": {
      "method": "PUT",
      "url": "Observation/084ed8f6-1d2e-11eb-8abc-0242e805c5c5"
    }
  }, {
    "resource": {
      "resourceType": "Observation",
      "id": "085704b4-1d2e-11eb-8abc-0242e805c5c5",
      "meta": {
        "versionId": "1604347711000",
        "lastUpdated": "2020-11-02T20:08:31.000+00:00"
      },
      "status": "final",
      "code": {
        "coding": [ {
          "code": "5096AAAAAAAAAAAAAAAAAAAAAAAAAAAAAAAA",
          "display": "RETURN VISIT DATE"
        }, {
          "system": "https://cielterminology.org",
          "code": "5096"
        } ],
        "text": "RETURN VISIT DATE"
      },
      "subject": {
        "reference": "Patient/ad9c1109-1d2c-11eb-8abc-0242e805c5c5",
        "type": "Patient",
        "display": "mumo mumo mumo (OpenMRS ID: MGFNRK)"
      },
      "encounter": {
        "reference": "Encounter/085681d0-1d2e-11eb-8abc-0242e805c5c5",
        "type": "Encounter"
      },
      "effectiveDateTime": "2017-10-18T00:00:00+00:00",
      "issued": "2020-11-02T20:08:31.000+00:00",
      "valueDateTime": "2017-11-17T00:00:00+00:00"
    },
    "request": {
      "method": "PUT",
      "url": "Observation/085681d0-1d2e-11eb-8abc-0242e805c5c5"
    }
  }, {
    "resource": {
      "resourceType": "Observation",
      "id": "08662e41-1d2e-11eb-8abc-0242e805c5c5",
      "meta": {
        "versionId": "1604347711000",
        "lastUpdated": "2020-11-02T20:08:31.000+00:00"
      },
      "status": "final",
      "code": {
        "coding": [ {
          "code": "5096AAAAAAAAAAAAAAAAAAAAAAAAAAAAAAAA",
          "display": "RETURN VISIT DATE"
        }, {
          "system": "https://cielterminology.org",
          "code": "5096"
        } ],
        "text": "RETURN VISIT DATE"
      },
      "subject": {
        "reference": "Patient/ad9c1109-1d2c-11eb-8abc-0242e805c5c5",
        "type": "Patient",
        "display": "mumo mumo mumo (OpenMRS ID: MGFNRK)"
      },
      "encounter": {
        "reference": "Encounter/0865b5eb-1d2e-11eb-8abc-0242e805c5c5",
        "type": "Encounter"
      },
      "effectiveDateTime": "2018-02-20T00:00:00+00:00",
      "issued": "2020-11-02T20:08:31.000+00:00",
      "valueDateTime": "2018-04-21T00:00:00+00:00"
    },
    "request": {
      "method": "PUT",
      "url": "Observation/0865b5eb-1d2e-11eb-8abc-0242e805c5c5"
    }
  }, {
    "resource": {
      "resourceType": "Observation",
      "id": "086f141e-1d2e-11eb-8abc-0242e805c5c5",
      "meta": {
        "versionId": "1604347711000",
        "lastUpdated": "2020-11-02T20:08:31.000+00:00"
      },
      "status": "final",
      "code": {
        "coding": [ {
          "code": "5096AAAAAAAAAAAAAAAAAAAAAAAAAAAAAAAA",
          "display": "RETURN VISIT DATE"
        }, {
          "system": "https://cielterminology.org",
          "code": "5096"
        } ],
        "text": "RETURN VISIT DATE"
      },
      "subject": {
        "reference": "Patient/ad9c1109-1d2c-11eb-8abc-0242e805c5c5",
        "type": "Patient",
        "display": "mumo mumo mumo (OpenMRS ID: MGFNRK)"
      },
      "encounter": {
        "reference": "Encounter/086e996b-1d2e-11eb-8abc-0242e805c5c5",
        "type": "Encounter"
      },
      "effectiveDateTime": "2018-04-17T00:00:00+00:00",
      "issued": "2020-11-02T20:08:31.000+00:00",
      "valueDateTime": "2018-05-17T00:00:00+00:00"
    },
    "request": {
      "method": "PUT",
      "url": "Observation/086e996b-1d2e-11eb-8abc-0242e805c5c5"
    }
  }, {
    "resource": {
      "resourceType": "Observation",
      "id": "087aaf1d-1d2e-11eb-8abc-0242e805c5c5",
      "meta": {
        "versionId": "1604347711000",
        "lastUpdated": "2020-11-02T20:08:31.000+00:00"
      },
      "status": "final",
      "code": {
        "coding": [ {
          "code": "5096AAAAAAAAAAAAAAAAAAAAAAAAAAAAAAAA",
          "display": "RETURN VISIT DATE"
        }, {
          "system": "https://cielterminology.org",
          "code": "5096"
        } ],
        "text": "RETURN VISIT DATE"
      },
      "subject": {
        "reference": "Patient/ad9c1109-1d2c-11eb-8abc-0242e805c5c5",
        "type": "Patient",
        "display": "mumo mumo mumo (OpenMRS ID: MGFNRK)"
      },
      "encounter": {
        "reference": "Encounter/087a2878-1d2e-11eb-8abc-0242e805c5c5",
        "type": "Encounter"
      },
      "effectiveDateTime": "2018-05-17T00:00:00+00:00",
      "issued": "2020-11-02T20:08:31.000+00:00",
      "valueDateTime": "2018-06-16T00:00:00+00:00"
    },
    "request": {
      "method": "PUT",
      "url": "Observation/087a2878-1d2e-11eb-8abc-0242e805c5c5"
    }
  }, {
    "resource": {
      "resourceType": "Observation",
      "id": "08838560-1d2e-11eb-8abc-0242e805c5c5",
      "meta": {
        "versionId": "1604347711000",
        "lastUpdated": "2020-11-02T20:08:31.000+00:00"
      },
      "status": "final",
      "code": {
        "coding": [ {
          "code": "5096AAAAAAAAAAAAAAAAAAAAAAAAAAAAAAAA",
          "display": "RETURN VISIT DATE"
        }, {
          "system": "https://cielterminology.org",
          "code": "5096"
        } ],
        "text": "RETURN VISIT DATE"
      },
      "subject": {
        "reference": "Patient/ad9c1109-1d2c-11eb-8abc-0242e805c5c5",
        "type": "Patient",
        "display": "mumo mumo mumo (OpenMRS ID: MGFNRK)"
      },
      "encounter": {
        "reference": "Encounter/0883063d-1d2e-11eb-8abc-0242e805c5c5",
        "type": "Encounter"
      },
      "effectiveDateTime": "2018-06-14T00:00:00+00:00",
      "issued": "2020-11-02T20:08:31.000+00:00",
      "valueDateTime": "2018-07-17T00:00:00+00:00"
    },
    "request": {
      "method": "PUT",
      "url": "Observation/0883063d-1d2e-11eb-8abc-0242e805c5c5"
    }
  }, {
    "resource": {
      "resourceType": "Observation",
      "id": "0892f19a-1d2e-11eb-8abc-0242e805c5c5",
      "meta": {
        "versionId": "1604347711000",
        "lastUpdated": "2020-11-02T20:08:31.000+00:00"
      },
      "status": "final",
      "code": {
        "coding": [ {
          "code": "5096AAAAAAAAAAAAAAAAAAAAAAAAAAAAAAAA",
          "display": "RETURN VISIT DATE"
        }, {
          "system": "https://cielterminology.org",
          "code": "5096"
        } ],
        "text": "RETURN VISIT DATE"
      },
      "subject": {
        "reference": "Patient/ad9c1109-1d2c-11eb-8abc-0242e805c5c5",
        "type": "Patient",
        "display": "mumo mumo mumo (OpenMRS ID: MGFNRK)"
      },
      "encounter": {
        "reference": "Encounter/089267df-1d2e-11eb-8abc-0242e805c5c5",
        "type": "Encounter"
      },
      "effectiveDateTime": "2018-07-17T00:00:00+00:00",
      "issued": "2020-11-02T20:08:31.000+00:00",
      "valueDateTime": "2018-10-15T00:00:00+00:00"
    },
    "request": {
      "method": "PUT",
      "url": "Observation/089267df-1d2e-11eb-8abc-0242e805c5c5"
    }
  }, {
    "resource": {
      "resourceType": "Observation",
      "id": "089ba2de-1d2e-11eb-8abc-0242e805c5c5",
      "meta": {
        "versionId": "1604347711000",
        "lastUpdated": "2020-11-02T20:08:31.000+00:00"
      },
      "status": "final",
      "code": {
        "coding": [ {
          "code": "5096AAAAAAAAAAAAAAAAAAAAAAAAAAAAAAAA",
          "display": "RETURN VISIT DATE"
        }, {
          "system": "https://cielterminology.org",
          "code": "5096"
        } ],
        "text": "RETURN VISIT DATE"
      },
      "subject": {
        "reference": "Patient/ad9c1109-1d2c-11eb-8abc-0242e805c5c5",
        "type": "Patient",
        "display": "mumo mumo mumo (OpenMRS ID: MGFNRK)"
      },
      "encounter": {
        "reference": "Encounter/089b37b6-1d2e-11eb-8abc-0242e805c5c5",
        "type": "Encounter"
      },
      "effectiveDateTime": "2018-10-11T00:00:00+00:00",
      "issued": "2020-11-02T20:08:31.000+00:00",
      "valueDateTime": "2018-11-10T00:00:00+00:00"
    },
    "request": {
      "method": "PUT",
      "url": "Observation/089b37b6-1d2e-11eb-8abc-0242e805c5c5"
    }
  }, {
    "resource": {
      "resourceType": "Observation",
      "id": "08a4b151-1d2e-11eb-8abc-0242e805c5c5",
      "meta": {
        "versionId": "1604347711000",
        "lastUpdated": "2020-11-02T20:08:31.000+00:00"
      },
      "status": "final",
      "code": {
        "coding": [ {
          "code": "5096AAAAAAAAAAAAAAAAAAAAAAAAAAAAAAAA",
          "display": "RETURN VISIT DATE"
        }, {
          "system": "https://cielterminology.org",
          "code": "5096"
        } ],
        "text": "RETURN VISIT DATE"
      },
      "subject": {
        "reference": "Patient/ad9c1109-1d2c-11eb-8abc-0242e805c5c5",
        "type": "Patient",
        "display": "mumo mumo mumo (OpenMRS ID: MGFNRK)"
      },
      "encounter": {
        "reference": "Encounter/08a42c8b-1d2e-11eb-8abc-0242e805c5c5",
        "type": "Encounter"
      },
      "effectiveDateTime": "2019-01-11T00:00:00+00:00",
      "issued": "2020-11-02T20:08:31.000+00:00",
      "valueDateTime": "2019-02-10T00:00:00+00:00"
    },
    "request": {
      "method": "PUT",
      "url": "Observation/08a42c8b-1d2e-11eb-8abc-0242e805c5c5"
    }
  }, {
    "resource": {
      "resourceType": "Observation",
      "id": "08b029b4-1d2e-11eb-8abc-0242e805c5c5",
      "meta": {
        "versionId": "1604347711000",
        "lastUpdated": "2020-11-02T20:08:31.000+00:00"
      },
      "status": "final",
      "code": {
        "coding": [ {
          "code": "5096AAAAAAAAAAAAAAAAAAAAAAAAAAAAAAAA",
          "display": "RETURN VISIT DATE"
        }, {
          "system": "https://cielterminology.org",
          "code": "5096"
        } ],
        "text": "RETURN VISIT DATE"
      },
      "subject": {
        "reference": "Patient/ad9c1109-1d2c-11eb-8abc-0242e805c5c5",
        "type": "Patient",
        "display": "mumo mumo mumo (OpenMRS ID: MGFNRK)"
      },
      "encounter": {
        "reference": "Encounter/08afa42d-1d2e-11eb-8abc-0242e805c5c5",
        "type": "Encounter"
      },
      "effectiveDateTime": "2019-02-06T00:00:00+00:00",
      "issued": "2020-11-02T20:08:31.000+00:00",
      "valueDateTime": "2019-03-08T00:00:00+00:00"
    },
    "request": {
      "method": "PUT",
      "url": "Observation/08afa42d-1d2e-11eb-8abc-0242e805c5c5"
    }
  }, {
    "resource": {
      "resourceType": "Observation",
      "id": "08b7b66c-1d2e-11eb-8abc-0242e805c5c5",
      "meta": {
        "versionId": "1604347711000",
        "lastUpdated": "2020-11-02T20:08:31.000+00:00"
      },
      "status": "final",
      "code": {
        "coding": [ {
          "code": "5096AAAAAAAAAAAAAAAAAAAAAAAAAAAAAAAA",
          "display": "RETURN VISIT DATE"
        }, {
          "system": "https://cielterminology.org",
          "code": "5096"
        } ],
        "text": "RETURN VISIT DATE"
      },
      "subject": {
        "reference": "Patient/ad9c1109-1d2c-11eb-8abc-0242e805c5c5",
        "type": "Patient",
        "display": "mumo mumo mumo (OpenMRS ID: MGFNRK)"
      },
      "encounter": {
        "reference": "Encounter/08b73769-1d2e-11eb-8abc-0242e805c5c5",
        "type": "Encounter"
      },
      "effectiveDateTime": "2019-03-06T00:00:00+00:00",
      "issued": "2020-11-02T20:08:31.000+00:00",
      "valueDateTime": "2019-04-09T00:00:00+00:00"
    },
    "request": {
      "method": "PUT",
      "url": "Observation/08b73769-1d2e-11eb-8abc-0242e805c5c5"
    }
  }, {
    "resource": {
      "resourceType": "Observation",
      "id": "08c0668d-1d2e-11eb-8abc-0242e805c5c5",
      "meta": {
        "versionId": "1604347711000",
        "lastUpdated": "2020-11-02T20:08:31.000+00:00"
      },
      "status": "final",
      "code": {
        "coding": [ {
          "code": "5096AAAAAAAAAAAAAAAAAAAAAAAAAAAAAAAA",
          "display": "RETURN VISIT DATE"
        }, {
          "system": "https://cielterminology.org",
          "code": "5096"
        } ],
        "text": "RETURN VISIT DATE"
      },
      "subject": {
        "reference": "Patient/ad9c1109-1d2c-11eb-8abc-0242e805c5c5",
        "type": "Patient",
        "display": "mumo mumo mumo (OpenMRS ID: MGFNRK)"
      },
      "encounter": {
        "reference": "Encounter/08c02878-1d2e-11eb-8abc-0242e805c5c5",
        "type": "Encounter"
      },
      "effectiveDateTime": "2019-05-07T00:00:00+00:00",
      "issued": "2020-11-02T20:08:31.000+00:00",
      "valueDateTime": "2019-06-06T00:00:00+00:00"
    },
    "request": {
      "method": "PUT",
      "url": "Observation/08c02878-1d2e-11eb-8abc-0242e805c5c5"
    }
  }, {
    "resource": {
      "resourceType": "Observation",
      "id": "08c83039-1d2e-11eb-8abc-0242e805c5c5",
      "meta": {
        "versionId": "1604347711000",
        "lastUpdated": "2020-11-02T20:08:31.000+00:00"
      },
      "status": "final",
      "code": {
        "coding": [ {
          "code": "5096AAAAAAAAAAAAAAAAAAAAAAAAAAAAAAAA",
          "display": "RETURN VISIT DATE"
        }, {
          "system": "https://cielterminology.org",
          "code": "5096"
        } ],
        "text": "RETURN VISIT DATE"
      },
      "subject": {
        "reference": "Patient/ad9c1109-1d2c-11eb-8abc-0242e805c5c5",
        "type": "Patient",
        "display": "mumo mumo mumo (OpenMRS ID: MGFNRK)"
      },
      "encounter": {
        "reference": "Encounter/08c7ee5b-1d2e-11eb-8abc-0242e805c5c5",
        "type": "Encounter"
      },
      "effectiveDateTime": "2020-04-07T00:00:00+00:00",
      "issued": "2020-11-02T20:08:31.000+00:00",
      "valueDateTime": "2020-07-06T00:00:00+00:00"
    },
    "request": {
      "method": "PUT",
      "url": "Observation/08c7ee5b-1d2e-11eb-8abc-0242e805c5c5"
    }
  }, {
    "resource": {
      "resourceType": "Observation",
      "id": "08d0149b-1d2e-11eb-8abc-0242e805c5c5",
      "meta": {
        "versionId": "1604347711000",
        "lastUpdated": "2020-11-02T20:08:31.000+00:00"
      },
      "status": "final",
      "code": {
        "coding": [ {
          "code": "5096AAAAAAAAAAAAAAAAAAAAAAAAAAAAAAAA",
          "display": "RETURN VISIT DATE"
        }, {
          "system": "https://cielterminology.org",
          "code": "5096"
        } ],
        "text": "RETURN VISIT DATE"
      },
      "subject": {
        "reference": "Patient/ad9c1109-1d2c-11eb-8abc-0242e805c5c5",
        "type": "Patient",
        "display": "mumo mumo mumo (OpenMRS ID: MGFNRK)"
      },
      "encounter": {
        "reference": "Encounter/08cf695c-1d2e-11eb-8abc-0242e805c5c5",
        "type": "Encounter"
      },
      "effectiveDateTime": "2020-07-07T00:00:00+00:00",
      "issued": "2020-11-02T20:08:31.000+00:00",
      "valueDateTime": "2020-11-10T00:00:00+00:00"
    },
    "request": {
      "method": "PUT",
      "url": "Observation/08cf695c-1d2e-11eb-8abc-0242e805c5c5"
    }
  }, {
    "resource": {
      "resourceType": "Observation",
      "id": "10c9dd62-f7b3-4da2-bbd0-b1586d9d4471",
      "meta": {
        "versionId": "1605170670000",
        "lastUpdated": "2020-11-12T08:44:30.000+00:00"
      },
      "status": "final",
      "code": {
        "coding": [ {
          "code": "5096AAAAAAAAAAAAAAAAAAAAAAAAAAAAAAAA",
          "display": "RETURN VISIT DATE"
        }, {
          "system": "https://cielterminology.org",
          "code": "5096"
        } ],
        "text": "RETURN VISIT DATE"
      },
      "subject": {
        "reference": "Patient/ad9c1109-1d2c-11eb-8abc-0242e805c5c5",
        "type": "Patient",
        "display": "mumo mumo mumo (OpenMRS ID: MGFNRK)"
      },
      "encounter": {
        "reference": "Encounter/28fa13b2-acd0-45aa-b4c5-0f614aad39cd",
        "type": "Encounter"
      },
      "effectiveDateTime": "2020-11-12T08:42:34+00:00",
      "issued": "2020-11-12T08:44:30.000+00:00",
      "valueDateTime": "2021-01-19T00:00:00+00:00"
    },
    "request": {
      "method": "PUT",
      "url": "Observation/28fa13b2-acd0-45aa-b4c5-0f614aad39cd"
    }
  }, {
    "resource": {
      "resourceType": "Observation",
      "id": "d191808f-a586-4ba5-86d8-6a981d5ccaf7",
      "meta": {
        "versionId": "1610372853000",
        "lastUpdated": "2021-01-11T13:47:33.000+00:00"
      },
      "status": "final",
      "code": {
        "coding": [ {
          "code": "5096AAAAAAAAAAAAAAAAAAAAAAAAAAAAAAAA",
          "display": "RETURN VISIT DATE"
        }, {
          "system": "https://cielterminology.org",
          "code": "5096"
        } ],
        "text": "RETURN VISIT DATE"
      },
      "subject": {
        "reference": "Patient/ad9c1109-1d2c-11eb-8abc-0242e805c5c5",
        "type": "Patient",
        "display": "mumo mumo mumo (OpenMRS ID: MGFNRK)"
      },
      "encounter": {
        "reference": "Encounter/eab12b5b-719c-47bc-a839-d3187254658a",
        "type": "Encounter"
      },
      "effectiveDateTime": "2021-01-11T13:42:57+00:00",
      "issued": "2021-01-11T13:47:33.000+00:00",
      "valueDateTime": "2021-05-20T00:00:00+00:00"
    },
    "request": {
      "method": "PUT",
      "url": "Observation/eab12b5b-719c-47bc-a839-d3187254658a"
    }
  }, {
    "resource": {
      "resourceType": "Observation",
      "id": "83f79509-8428-45d9-8086-7b1d3862a2f5",
      "meta": {
        "versionId": "1621508544000",
        "lastUpdated": "2021-05-20T11:02:24.000+00:00"
      },
      "status": "final",
      "code": {
        "coding": [ {
          "code": "5096AAAAAAAAAAAAAAAAAAAAAAAAAAAAAAAA",
          "display": "RETURN VISIT DATE"
        }, {
          "system": "https://cielterminology.org",
          "code": "5096"
        } ],
        "text": "RETURN VISIT DATE"
      },
      "subject": {
        "reference": "Patient/ad9c1109-1d2c-11eb-8abc-0242e805c5c5",
        "type": "Patient",
        "display": "mumo mumo mumo (OpenMRS ID: MGFNRK)"
      },
      "encounter": {
        "reference": "Encounter/63048667-0818-4b9c-ad44-87254dd0275b",
        "type": "Encounter"
      },
      "effectiveDateTime": "2021-05-20T10:59:51+00:00",
      "issued": "2021-05-20T11:02:24.000+00:00",
      "valueDateTime": "2021-11-18T00:00:00+00:00"
    },
    "request": {
      "method": "PUT",
      "url": "Observation/63048667-0818-4b9c-ad44-87254dd0275b"
    }
  }, {
    "resource": {
      "resourceType": "Observation",
      "id": "f226ee37-4c69-4713-bbd6-92007ee9d38a",
      "meta": {
        "versionId": "1637660516000",
        "lastUpdated": "2021-11-23T09:41:56.000+00:00"
      },
      "status": "final",
      "code": {
        "coding": [ {
          "code": "5096AAAAAAAAAAAAAAAAAAAAAAAAAAAAAAAA",
          "display": "RETURN VISIT DATE"
        }, {
          "system": "https://cielterminology.org",
          "code": "5096"
        } ],
        "text": "RETURN VISIT DATE"
      },
      "subject": {
        "reference": "Patient/ad9c1109-1d2c-11eb-8abc-0242e805c5c5",
        "type": "Patient",
        "display": "mumo mumo mumo (OpenMRS ID: MGFNRK)"
      },
      "encounter": {
        "reference": "Encounter/8704c5f1-2dc5-450e-a8f3-ffde87712aa0",
        "type": "Encounter"
      },
      "effectiveDateTime": "2021-11-23T09:41:25+00:00",
      "issued": "2021-11-23T09:41:56.000+00:00",
      "valueDateTime": "2022-02-22T00:00:00+00:00"
    },
    "request": {
      "method": "PUT",
      "url": "Observation/8704c5f1-2dc5-450e-a8f3-ffde87712aa0"
    }
  }, {
    "resource": {
      "resourceType": "Observation",
      "id": "63e099e6-fa7f-4cba-9428-7a7ed4352797",
      "meta": {
        "versionId": "1645608289000",
        "lastUpdated": "2022-02-23T09:24:49.000+00:00"
      },
      "status": "final",
      "code": {
        "coding": [ {
          "code": "5096AAAAAAAAAAAAAAAAAAAAAAAAAAAAAAAA",
          "display": "RETURN VISIT DATE"
        }, {
          "system": "https://cielterminology.org",
          "code": "5096"
        } ],
        "text": "RETURN VISIT DATE"
      },
      "subject": {
        "reference": "Patient/ad9c1109-1d2c-11eb-8abc-0242e805c5c5",
        "type": "Patient",
        "display": "mumo mumo mumo (OpenMRS ID: MGFNRK)"
      },
      "encounter": {
        "reference": "Encounter/e2007410-5842-4ad4-aca3-1a37960306d3",
        "type": "Encounter"
      },
      "effectiveDateTime": "2022-02-23T09:23:35+00:00",
      "issued": "2022-02-23T09:24:49.000+00:00",
      "valueDateTime": "2022-06-16T00:00:00+00:00"
    },
    "request": {
      "method": "PUT",
      "url": "Observation/e2007410-5842-4ad4-aca3-1a37960306d3"
    }
  }, {
    "resource": {
      "resourceType": "Observation",
      "id": "196ad97d-8f39-46f3-a553-d60045a7cb06",
      "meta": {
        "versionId": "1655384279000",
        "lastUpdated": "2022-06-16T12:57:59.000+00:00"
      },
      "status": "final",
      "code": {
        "coding": [ {
          "code": "5096AAAAAAAAAAAAAAAAAAAAAAAAAAAAAAAA",
          "display": "RETURN VISIT DATE"
        }, {
          "system": "https://cielterminology.org",
          "code": "5096"
        } ],
        "text": "RETURN VISIT DATE"
      },
      "subject": {
        "reference": "Patient/ad9c1109-1d2c-11eb-8abc-0242e805c5c5",
        "type": "Patient",
        "display": "mumo mumo mumo (OpenMRS ID: MGFNRK)"
      },
      "encounter": {
        "reference": "Encounter/92465bf4-ae05-4ccf-a7ae-27528aa33728",
        "type": "Encounter"
      },
      "effectiveDateTime": "2022-06-16T12:56:35+00:00",
      "issued": "2022-06-16T12:57:59.000+00:00",
      "valueDateTime": "2023-01-17T00:00:00+00:00"
    },
    "request": {
      "method": "PUT",
      "url": "Observation/92465bf4-ae05-4ccf-a7ae-27528aa33728"
    }
  }, {
    "resource": {
      "resourceType": "Observation",
      "id": "a13471b9-89e1-471a-9787-f7bf2b7f61af",
      "meta": {
        "versionId": "1662121508000",
        "lastUpdated": "2022-09-02T12:25:08.000+00:00"
      },
      "status": "final",
      "code": {
        "coding": [ {
          "code": "5096AAAAAAAAAAAAAAAAAAAAAAAAAAAAAAAA",
          "display": "RETURN VISIT DATE"
        }, {
          "system": "https://cielterminology.org",
          "code": "5096"
        } ],
        "text": "RETURN VISIT DATE"
      },
      "subject": {
        "reference": "Patient/ad9c1109-1d2c-11eb-8abc-0242e805c5c5",
        "type": "Patient",
        "display": "mumo mumo mumo (OpenMRS ID: MGFNRK)"
      },
      "encounter": {
        "reference": "Encounter/0b3cfa1e-46f4-422f-8486-4f0704b5ddb0",
        "type": "Encounter"
      },
      "effectiveDateTime": "2022-09-02T12:23:25+00:00",
      "issued": "2022-09-02T12:25:08.000+00:00",
      "valueDateTime": "2023-01-17T00:00:00+00:00"
    },
    "request": {
      "method": "PUT",
      "url": "Observation/0b3cfa1e-46f4-422f-8486-4f0704b5ddb0"
    }
  }, {
    "resource": {
      "resourceType": "Observation",
      "id": "8a01a998-964e-4fbb-8bf9-4a32c7e6c37d",
      "meta": {
        "versionId": "1673953215000",
        "lastUpdated": "2023-01-17T11:00:15.000+00:00"
      },
      "status": "final",
      "code": {
        "coding": [ {
          "code": "5096AAAAAAAAAAAAAAAAAAAAAAAAAAAAAAAA",
          "display": "RETURN VISIT DATE"
        }, {
          "system": "https://cielterminology.org",
          "code": "5096"
        } ],
        "text": "RETURN VISIT DATE"
      },
      "subject": {
        "reference": "Patient/ad9c1109-1d2c-11eb-8abc-0242e805c5c5",
        "type": "Patient",
        "display": "mumo mumo mumo (OpenMRS ID: MGFNRK)"
      },
      "encounter": {
        "reference": "Encounter/2bcec428-9b48-43bd-a210-82605c1639ff",
        "type": "Encounter"
      },
      "effectiveDateTime": "2023-01-17T10:58:15+00:00",
      "issued": "2023-01-17T11:00:15.000+00:00",
      "valueDateTime": "2023-07-18T00:00:00+00:00"
    },
    "request": {
      "method": "PUT",
      "url": "Observation/2bcec428-9b48-43bd-a210-82605c1639ff"
    }
  }, {
    "resource": {
      "resourceType": "Observation",
      "id": "f68091fd-6a49-47d9-82a9-997958dc337d",
      "meta": {
        "versionId": "1689776594000",
        "lastUpdated": "2023-07-19T14:23:14.000+00:00"
      },
      "status": "final",
      "code": {
        "coding": [ {
          "code": "5096AAAAAAAAAAAAAAAAAAAAAAAAAAAAAAAA",
          "display": "RETURN VISIT DATE"
        }, {
          "system": "https://cielterminology.org",
          "code": "5096"
        } ],
        "text": "RETURN VISIT DATE"
      },
      "subject": {
        "reference": "Patient/ad9c1109-1d2c-11eb-8abc-0242e805c5c5",
        "type": "Patient",
        "display": "mumo mumo mumo (OpenMRS ID: MGFNRK)"
      },
      "encounter": {
        "reference": "Encounter/728f8ede-7e33-4db3-8e52-26e7e7d3664d",
        "type": "Encounter"
      },
      "effectiveDateTime": "2023-07-18T14:20:00+00:00",
      "issued": "2023-07-19T14:23:14.000+00:00",
      "valueDateTime": "2024-01-17T00:00:00+00:00"
    },
    "request": {
      "method": "PUT",
      "url": "Observation/728f8ede-7e33-4db3-8e52-26e7e7d3664d"
    }
  }, {
    "resource": {
      "resourceType": "Patient",
      "id": "adaddf3b-1d2c-11eb-8abc-0242e805c5c5",
      "meta": {
        "versionId": "1604347129000",
        "lastUpdated": "2020-11-02T19:58:49.000+00:00"
      },
      "identifier": [ {
        "id": "adbbcbbc-1d2c-11eb-8abc-0242e805c5c5",
        "extension": [ {
          "url": "http://fhir.openmrs.org/ext/patient/identifier#location",
          "valueReference": {
            "reference": "Location/a92f9952-1c4c-4659-893b-a6b56a16b1df",
            "type": "Location",
            "display": "Ngarua Health Centre"
          }
        } ],
        "use": "official",
        "type": {
          "coding": [ {
            "code": "dfacd928-0370-4315-99d7-6ec1c9f7ae76"
          } ],
          "text": "OpenMRS ID"
        },
        "value": "MGFNTH"
      }, {
        "id": "adae6cbe-1d2c-11eb-8abc-0242e805c5c5",
        "extension": [ {
          "url": "http://fhir.openmrs.org/ext/patient/identifier#location",
          "valueReference": {
            "reference": "Location/a92f9952-1c4c-4659-893b-a6b56a16b1df",
            "type": "Location",
            "display": "Ngarua Health Centre"
          }
        } ],
        "use": "usual",
        "type": {
          "coding": [ {
            "code": "05ee9cf4-7242-4a17-b4d4-00f707265c8a"
          } ],
          "text": "Unique Patient Number"
        },
        "value": "1533900249"
      }, {
        "id": "256cd1c5-81d8-4f3b-a7a9-c35a030e5937",
        "extension": [ {
          "url": "http://fhir.openmrs.org/ext/patient/identifier#location",
          "valueReference": {
            "reference": "Location/a92f9952-1c4c-4659-893b-a6b56a16b1df",
            "type": "Location",
            "display": "Ngarua Health Centre"
          }
        } ],
        "use": "usual",
        "type": {
          "coding": [ {
            "code": "49af6cdc-7968-4abb-bf46-de10d7f4859f"
          } ],
          "text": "National ID"
        },
        "value": "98899888"
      }, {
        "id": "bfb03beb-9881-4c45-9ba9-3ac725aa5ac8",
        "extension": [ {
          "url": "http://fhir.openmrs.org/ext/patient/identifier#location",
          "valueReference": {
            "reference": "Location/a92f9952-1c4c-4659-893b-a6b56a16b1df",
            "type": "Location",
            "display": "Ngarua Health Centre"
          }
        } ],
        "use": "usual",
        "type": {
          "coding": [ {
            "code": "f85081e2-b4be-4e48-b3a4-7994b69bb101"
          } ],
          "text": "National Unique patient identifier"
        },
        "value": "0000007000808"
      } ],
      "active": true,
      "name": [ {
        "id": "adae06c0-1d2c-11eb-8abc-0242e805c5c5",
        "family": "AUDIA",
        "given": [ "AUDIA", "AUDIA" ]
      } ],
      "gender": "female",
      "birthDate": "1979-10-20",
      "deceasedBoolean": false,
      "address": [ {
        "id": "87ee290d-1c69-491d-b159-374c28092420",
        "extension": [ {
          "url": "http://fhir.openmrs.org/ext/address",
          "extension": [ {
            "url": "http://fhir.openmrs.org/ext/address#address1",
            "valueString": "202 address1"
          }, {
            "url": "http://fhir.openmrs.org/ext/address#address2",
            "valueString": "Karandi center"
          }, {
            "url": "http://fhir.openmrs.org/ext/address#address4",
            "valueString": "Marmanet"
          }, {
            "url": "http://fhir.openmrs.org/ext/address#address5",
            "valueString": "Thigio"
          }, {
            "url": "http://fhir.openmrs.org/ext/address#address6",
            "valueString": "Gituamba"
          } ]
        } ],
        "use": "home",
        "city": "Columbus",
        "district": "Laikipia",
        "state": "Laikipia West"
      } ]
    },
    "request": {
      "method": "PUT",
      "url": "Patient/adaddf3b-1d2c-11eb-8abc-0242e805c5c5"
    }
  }, {
    "resource": {
      "resourceType": "Observation",
      "id": "f292741c-738b-4ece-a578-deed819233c6",
      "meta": {
        "versionId": "1650978494000",
        "lastUpdated": "2022-04-26T13:08:14.000+00:00"
      },
      "status": "final",
      "code": {
        "coding": [ {
          "code": "160540AAAAAAAAAAAAAAAAAAAAAAAAAAAAAA",
          "display": "Method of enrollment"
        }, {
          "system": "http://loinc.org",
          "code": "45252-4"
        }, {
          "system": "https://cielterminology.org",
          "code": "160540"
        } ],
        "text": "Method of enrollment"
      },
      "subject": {
        "reference": "Patient/adaddf3b-1d2c-11eb-8abc-0242e805c5c5",
        "type": "Patient",
        "display": "AUDIA AUDIA AUDIA (OpenMRS ID: MGFNTH)"
      },
      "encounter": {
        "reference": "Encounter/ff844c40-1d2c-11eb-8abc-0242e805c5c5",
        "type": "Encounter"
      },
      "effectiveDateTime": "2015-11-10T00:00:00+00:00",
      "issued": "2022-04-26T13:08:14.000+00:00",
      "valueCodeableConcept": {
        "coding": [ {
          "code": "160542AAAAAAAAAAAAAAAAAAAAAAAAAAAAAA",
          "display": "Outpatient department"
        }, {
          "system": "https://cielterminology.org",
          "code": "160542"
        }, {
          "system": "http://snomed.info/sct/",
          "code": "33022008"
        } ],
        "text": "Outpatient department"
      }
    },
    "request": {
      "method": "PUT",
      "url": "Observation/ff844c40-1d2c-11eb-8abc-0242e805c5c5"
    }
  }, {
    "resource": {
      "resourceType": "Observation",
      "id": "6f0c9b3f-1d2e-11eb-8abc-0242e805c5c5",
      "meta": {
        "versionId": "1604347883000",
        "lastUpdated": "2020-11-02T20:11:23.000+00:00"
      },
      "status": "final",
      "code": {
        "coding": [ {
          "code": "1193AAAAAAAAAAAAAAAAAAAAAAAAAAAAAAAA",
          "display": "CURRENT DRUGS USED"
        }, {
          "system": "https://cielterminology.org",
          "code": "1193"
        } ],
        "text": "CURRENT DRUGS USED"
      },
      "subject": {
        "reference": "Patient/adaddf3b-1d2c-11eb-8abc-0242e805c5c5",
        "type": "Patient",
        "display": "AUDIA AUDIA AUDIA (OpenMRS ID: MGFNTH)"
      },
      "encounter": {
        "reference": "Encounter/6f0c5b8c-1d2e-11eb-8abc-0242e805c5c5",
        "type": "Encounter"
      },
      "effectiveDateTime": "2016-06-08T00:00:00+00:00",
      "issued": "2020-11-02T20:11:23.000+00:00",
      "valueCodeableConcept": {
        "coding": [ {
          "code": "164505AAAAAAAAAAAAAAAAAAAAAAAAAAAAAA",
          "display": "Lamivudine / Efavirenz / Tenofovir"
        }, {
          "system": "https://cielterminology.org",
          "code": "164505"
        } ],
        "text": "Lamivudine / Efavirenz / Tenofovir"
      }
    },
    "request": {
      "method": "PUT",
      "url": "Observation/6f0c5b8c-1d2e-11eb-8abc-0242e805c5c5"
    }
  }, {
    "resource": {
      "resourceType": "Observation",
      "id": "08d75e01-1d2e-11eb-8abc-0242e805c5c5",
      "meta": {
        "versionId": "1604347711000",
        "lastUpdated": "2020-11-02T20:08:31.000+00:00"
      },
      "status": "final",
      "code": {
        "coding": [ {
          "code": "5096AAAAAAAAAAAAAAAAAAAAAAAAAAAAAAAA",
          "display": "RETURN VISIT DATE"
        }, {
          "system": "https://cielterminology.org",
          "code": "5096"
        } ],
        "text": "RETURN VISIT DATE"
      },
      "subject": {
        "reference": "Patient/adaddf3b-1d2c-11eb-8abc-0242e805c5c5",
        "type": "Patient",
        "display": "AUDIA AUDIA AUDIA (OpenMRS ID: MGFNTH)"
      },
      "encounter": {
        "reference": "Encounter/08d71d89-1d2e-11eb-8abc-0242e805c5c5",
        "type": "Encounter"
      },
      "effectiveDateTime": "2016-06-08T00:00:00+00:00",
      "issued": "2020-11-02T20:08:31.000+00:00",
      "valueDateTime": "2016-08-07T00:00:00+00:00"
    },
    "request": {
      "method": "PUT",
      "url": "Observation/08d71d89-1d2e-11eb-8abc-0242e805c5c5"
    }
  }, {
    "resource": {
      "resourceType": "Observation",
      "id": "08e4722a-1d2e-11eb-8abc-0242e805c5c5",
      "meta": {
        "versionId": "1604347711000",
        "lastUpdated": "2020-11-02T20:08:31.000+00:00"
      },
      "status": "final",
      "code": {
        "coding": [ {
          "code": "5096AAAAAAAAAAAAAAAAAAAAAAAAAAAAAAAA",
          "display": "RETURN VISIT DATE"
        }, {
          "system": "https://cielterminology.org",
          "code": "5096"
        } ],
        "text": "RETURN VISIT DATE"
      },
      "subject": {
        "reference": "Patient/adaddf3b-1d2c-11eb-8abc-0242e805c5c5",
        "type": "Patient",
        "display": "AUDIA AUDIA AUDIA (OpenMRS ID: MGFNTH)"
      },
      "encounter": {
        "reference": "Encounter/08e3da1e-1d2e-11eb-8abc-0242e805c5c5",
        "type": "Encounter"
      },
      "effectiveDateTime": "2017-12-07T00:00:00+00:00",
      "issued": "2020-11-02T20:08:31.000+00:00",
      "valueDateTime": "2018-01-06T00:00:00+00:00"
    },
    "request": {
      "method": "PUT",
      "url": "Observation/08e3da1e-1d2e-11eb-8abc-0242e805c5c5"
    }
  }, {
    "resource": {
      "resourceType": "Observation",
      "id": "08ebaa0f-1d2e-11eb-8abc-0242e805c5c5",
      "meta": {
        "versionId": "1604347712000",
        "lastUpdated": "2020-11-02T20:08:32.000+00:00"
      },
      "status": "final",
      "code": {
        "coding": [ {
          "code": "5096AAAAAAAAAAAAAAAAAAAAAAAAAAAAAAAA",
          "display": "RETURN VISIT DATE"
        }, {
          "system": "https://cielterminology.org",
          "code": "5096"
        } ],
        "text": "RETURN VISIT DATE"
      },
      "subject": {
        "reference": "Patient/adaddf3b-1d2c-11eb-8abc-0242e805c5c5",
        "type": "Patient",
        "display": "AUDIA AUDIA AUDIA (OpenMRS ID: MGFNTH)"
      },
      "encounter": {
        "reference": "Encounter/08eb6e08-1d2e-11eb-8abc-0242e805c5c5",
        "type": "Encounter"
      },
      "effectiveDateTime": "2017-12-12T00:00:00+00:00",
      "issued": "2020-11-02T20:08:32.000+00:00",
      "valueDateTime": "2018-01-11T00:00:00+00:00"
    },
    "request": {
      "method": "PUT",
      "url": "Observation/08eb6e08-1d2e-11eb-8abc-0242e805c5c5"
    }
  }, {
    "resource": {
      "resourceType": "Observation",
      "id": "08ff1e55-1d2e-11eb-8abc-0242e805c5c5",
      "meta": {
        "versionId": "1604347712000",
        "lastUpdated": "2020-11-02T20:08:32.000+00:00"
      },
      "status": "final",
      "code": {
        "coding": [ {
          "code": "5096AAAAAAAAAAAAAAAAAAAAAAAAAAAAAAAA",
          "display": "RETURN VISIT DATE"
        }, {
          "system": "https://cielterminology.org",
          "code": "5096"
        } ],
        "text": "RETURN VISIT DATE"
      },
      "subject": {
        "reference": "Patient/adaddf3b-1d2c-11eb-8abc-0242e805c5c5",
        "type": "Patient",
        "display": "AUDIA AUDIA AUDIA (OpenMRS ID: MGFNTH)"
      },
      "encounter": {
        "reference": "Encounter/08fe966b-1d2e-11eb-8abc-0242e805c5c5",
        "type": "Encounter"
      },
      "effectiveDateTime": "2018-03-08T00:00:00+00:00",
      "issued": "2020-11-02T20:08:32.000+00:00",
      "valueDateTime": "2018-04-07T00:00:00+00:00"
    },
    "request": {
      "method": "PUT",
      "url": "Observation/08fe966b-1d2e-11eb-8abc-0242e805c5c5"
    }
  }, {
    "resource": {
      "resourceType": "Observation",
      "id": "0906a514-1d2e-11eb-8abc-0242e805c5c5",
      "meta": {
        "versionId": "1604347712000",
        "lastUpdated": "2020-11-02T20:08:32.000+00:00"
      },
      "status": "final",
      "code": {
        "coding": [ {
          "code": "5096AAAAAAAAAAAAAAAAAAAAAAAAAAAAAAAA",
          "display": "RETURN VISIT DATE"
        }, {
          "system": "https://cielterminology.org",
          "code": "5096"
        } ],
        "text": "RETURN VISIT DATE"
      },
      "subject": {
        "reference": "Patient/adaddf3b-1d2c-11eb-8abc-0242e805c5c5",
        "type": "Patient",
        "display": "AUDIA AUDIA AUDIA (OpenMRS ID: MGFNTH)"
      },
      "encounter": {
        "reference": "Encounter/09062a69-1d2e-11eb-8abc-0242e805c5c5",
        "type": "Encounter"
      },
      "effectiveDateTime": "2018-04-05T00:00:00+00:00",
      "issued": "2020-11-02T20:08:32.000+00:00",
      "valueDateTime": "2018-05-05T00:00:00+00:00"
    },
    "request": {
      "method": "PUT",
      "url": "Observation/09062a69-1d2e-11eb-8abc-0242e805c5c5"
    }
  }, {
    "resource": {
      "resourceType": "Observation",
      "id": "090e42ec-1d2e-11eb-8abc-0242e805c5c5",
      "meta": {
        "versionId": "1604347712000",
        "lastUpdated": "2020-11-02T20:08:32.000+00:00"
      },
      "status": "final",
      "code": {
        "coding": [ {
          "code": "5096AAAAAAAAAAAAAAAAAAAAAAAAAAAAAAAA",
          "display": "RETURN VISIT DATE"
        }, {
          "system": "https://cielterminology.org",
          "code": "5096"
        } ],
        "text": "RETURN VISIT DATE"
      },
      "subject": {
        "reference": "Patient/adaddf3b-1d2c-11eb-8abc-0242e805c5c5",
        "type": "Patient",
        "display": "AUDIA AUDIA AUDIA (OpenMRS ID: MGFNTH)"
      },
      "encounter": {
        "reference": "Encounter/090dd3cf-1d2e-11eb-8abc-0242e805c5c5",
        "type": "Encounter"
      },
      "effectiveDateTime": "2018-05-04T00:00:00+00:00",
      "issued": "2020-11-02T20:08:32.000+00:00",
      "valueDateTime": "2018-06-07T00:00:00+00:00"
    },
    "request": {
      "method": "PUT",
      "url": "Observation/090dd3cf-1d2e-11eb-8abc-0242e805c5c5"
    }
  }, {
    "resource": {
      "resourceType": "Observation",
      "id": "09189564-1d2e-11eb-8abc-0242e805c5c5",
      "meta": {
        "versionId": "1604347712000",
        "lastUpdated": "2020-11-02T20:08:32.000+00:00"
      },
      "status": "final",
      "code": {
        "coding": [ {
          "code": "5096AAAAAAAAAAAAAAAAAAAAAAAAAAAAAAAA",
          "display": "RETURN VISIT DATE"
        }, {
          "system": "https://cielterminology.org",
          "code": "5096"
        } ],
        "text": "RETURN VISIT DATE"
      },
      "subject": {
        "reference": "Patient/adaddf3b-1d2c-11eb-8abc-0242e805c5c5",
        "type": "Patient",
        "display": "AUDIA AUDIA AUDIA (OpenMRS ID: MGFNTH)"
      },
      "encounter": {
        "reference": "Encounter/09180ea9-1d2e-11eb-8abc-0242e805c5c5",
        "type": "Encounter"
      },
      "effectiveDateTime": "2018-06-07T00:00:00+00:00",
      "issued": "2020-11-02T20:08:32.000+00:00",
      "valueDateTime": "2018-07-07T00:00:00+00:00"
    },
    "request": {
      "method": "PUT",
      "url": "Observation/09180ea9-1d2e-11eb-8abc-0242e805c5c5"
    }
  }, {
    "resource": {
      "resourceType": "Observation",
      "id": "09203ac0-1d2e-11eb-8abc-0242e805c5c5",
      "meta": {
        "versionId": "1604347712000",
        "lastUpdated": "2020-11-02T20:08:32.000+00:00"
      },
      "status": "final",
      "code": {
        "coding": [ {
          "code": "5096AAAAAAAAAAAAAAAAAAAAAAAAAAAAAAAA",
          "display": "RETURN VISIT DATE"
        }, {
          "system": "https://cielterminology.org",
          "code": "5096"
        } ],
        "text": "RETURN VISIT DATE"
      },
      "subject": {
        "reference": "Patient/adaddf3b-1d2c-11eb-8abc-0242e805c5c5",
        "type": "Patient",
        "display": "AUDIA AUDIA AUDIA (OpenMRS ID: MGFNTH)"
      },
      "encounter": {
        "reference": "Encounter/091fb4a8-1d2e-11eb-8abc-0242e805c5c5",
        "type": "Encounter"
      },
      "effectiveDateTime": "2018-07-05T00:00:00+00:00",
      "issued": "2020-11-02T20:08:32.000+00:00",
      "valueDateTime": "2018-08-07T00:00:00+00:00"
    },
    "request": {
      "method": "PUT",
      "url": "Observation/091fb4a8-1d2e-11eb-8abc-0242e805c5c5"
    }
  }, {
    "resource": {
      "resourceType": "Observation",
      "id": "0927c486-1d2e-11eb-8abc-0242e805c5c5",
      "meta": {
        "versionId": "1604347712000",
        "lastUpdated": "2020-11-02T20:08:32.000+00:00"
      },
      "status": "final",
      "code": {
        "coding": [ {
          "code": "5096AAAAAAAAAAAAAAAAAAAAAAAAAAAAAAAA",
          "display": "RETURN VISIT DATE"
        }, {
          "system": "https://cielterminology.org",
          "code": "5096"
        } ],
        "text": "RETURN VISIT DATE"
      },
      "subject": {
        "reference": "Patient/adaddf3b-1d2c-11eb-8abc-0242e805c5c5",
        "type": "Patient",
        "display": "AUDIA AUDIA AUDIA (OpenMRS ID: MGFNTH)"
      },
      "encounter": {
        "reference": "Encounter/092746cc-1d2e-11eb-8abc-0242e805c5c5",
        "type": "Encounter"
      },
      "effectiveDateTime": "2018-08-02T00:00:00+00:00",
      "issued": "2020-11-02T20:08:32.000+00:00",
      "valueDateTime": "2018-09-04T00:00:00+00:00"
    },
    "request": {
      "method": "PUT",
      "url": "Observation/092746cc-1d2e-11eb-8abc-0242e805c5c5"
    }
  }, {
    "resource": {
      "resourceType": "Observation",
      "id": "09399f44-1d2e-11eb-8abc-0242e805c5c5",
      "meta": {
        "versionId": "1604347712000",
        "lastUpdated": "2020-11-02T20:08:32.000+00:00"
      },
      "status": "final",
      "code": {
        "coding": [ {
          "code": "5096AAAAAAAAAAAAAAAAAAAAAAAAAAAAAAAA",
          "display": "RETURN VISIT DATE"
        }, {
          "system": "https://cielterminology.org",
          "code": "5096"
        } ],
        "text": "RETURN VISIT DATE"
      },
      "subject": {
        "reference": "Patient/adaddf3b-1d2c-11eb-8abc-0242e805c5c5",
        "type": "Patient",
        "display": "AUDIA AUDIA AUDIA (OpenMRS ID: MGFNTH)"
      },
      "encounter": {
        "reference": "Encounter/09392a58-1d2e-11eb-8abc-0242e805c5c5",
        "type": "Encounter"
      },
      "effectiveDateTime": "2018-09-03T00:00:00+00:00",
      "issued": "2020-11-02T20:08:32.000+00:00",
      "valueDateTime": "2018-10-04T00:00:00+00:00"
    },
    "request": {
      "method": "PUT",
      "url": "Observation/09392a58-1d2e-11eb-8abc-0242e805c5c5"
    }
  }, {
    "resource": {
      "resourceType": "Observation",
      "id": "0940fa0e-1d2e-11eb-8abc-0242e805c5c5",
      "meta": {
        "versionId": "1604347712000",
        "lastUpdated": "2020-11-02T20:08:32.000+00:00"
      },
      "status": "final",
      "code": {
        "coding": [ {
          "code": "5096AAAAAAAAAAAAAAAAAAAAAAAAAAAAAAAA",
          "display": "RETURN VISIT DATE"
        }, {
          "system": "https://cielterminology.org",
          "code": "5096"
        } ],
        "text": "RETURN VISIT DATE"
      },
      "subject": {
        "reference": "Patient/adaddf3b-1d2c-11eb-8abc-0242e805c5c5",
        "type": "Patient",
        "display": "AUDIA AUDIA AUDIA (OpenMRS ID: MGFNTH)"
      },
      "encounter": {
        "reference": "Encounter/0940bac9-1d2e-11eb-8abc-0242e805c5c5",
        "type": "Encounter"
      },
      "effectiveDateTime": "2018-09-04T00:00:00+00:00",
      "issued": "2020-11-02T20:08:32.000+00:00",
      "valueDateTime": "2018-10-04T00:00:00+00:00"
    },
    "request": {
      "method": "PUT",
      "url": "Observation/0940bac9-1d2e-11eb-8abc-0242e805c5c5"
    }
  }, {
    "resource": {
      "resourceType": "Observation",
      "id": "0948f375-1d2e-11eb-8abc-0242e805c5c5",
      "meta": {
        "versionId": "1604347712000",
        "lastUpdated": "2020-11-02T20:08:32.000+00:00"
      },
      "status": "final",
      "code": {
        "coding": [ {
          "code": "5096AAAAAAAAAAAAAAAAAAAAAAAAAAAAAAAA",
          "display": "RETURN VISIT DATE"
        }, {
          "system": "https://cielterminology.org",
          "code": "5096"
        } ],
        "text": "RETURN VISIT DATE"
      },
      "subject": {
        "reference": "Patient/adaddf3b-1d2c-11eb-8abc-0242e805c5c5",
        "type": "Patient",
        "display": "AUDIA AUDIA AUDIA (OpenMRS ID: MGFNTH)"
      },
      "encounter": {
        "reference": "Encounter/094873a9-1d2e-11eb-8abc-0242e805c5c5",
        "type": "Encounter"
      },
      "effectiveDateTime": "2018-10-04T00:00:00+00:00",
      "issued": "2020-11-02T20:08:32.000+00:00",
      "valueDateTime": "2018-11-06T00:00:00+00:00"
    },
    "request": {
      "method": "PUT",
      "url": "Observation/094873a9-1d2e-11eb-8abc-0242e805c5c5"
    }
  }, {
    "resource": {
      "resourceType": "Observation",
      "id": "09508dc4-1d2e-11eb-8abc-0242e805c5c5",
      "meta": {
        "versionId": "1604347712000",
        "lastUpdated": "2020-11-02T20:08:32.000+00:00"
      },
      "status": "final",
      "code": {
        "coding": [ {
          "code": "5096AAAAAAAAAAAAAAAAAAAAAAAAAAAAAAAA",
          "display": "RETURN VISIT DATE"
        }, {
          "system": "https://cielterminology.org",
          "code": "5096"
        } ],
        "text": "RETURN VISIT DATE"
      },
      "subject": {
        "reference": "Patient/adaddf3b-1d2c-11eb-8abc-0242e805c5c5",
        "type": "Patient",
        "display": "AUDIA AUDIA AUDIA (OpenMRS ID: MGFNTH)"
      },
      "encounter": {
        "reference": "Encounter/09501791-1d2e-11eb-8abc-0242e805c5c5",
        "type": "Encounter"
      },
      "effectiveDateTime": "2018-11-08T00:00:00+00:00",
      "issued": "2020-11-02T20:08:32.000+00:00",
      "valueDateTime": "2018-12-06T00:00:00+00:00"
    },
    "request": {
      "method": "PUT",
      "url": "Observation/09501791-1d2e-11eb-8abc-0242e805c5c5"
    }
  }, {
    "resource": {
      "resourceType": "Observation",
      "id": "0958249d-1d2e-11eb-8abc-0242e805c5c5",
      "meta": {
        "versionId": "1604347712000",
        "lastUpdated": "2020-11-02T20:08:32.000+00:00"
      },
      "status": "final",
      "code": {
        "coding": [ {
          "code": "5096AAAAAAAAAAAAAAAAAAAAAAAAAAAAAAAA",
          "display": "RETURN VISIT DATE"
        }, {
          "system": "https://cielterminology.org",
          "code": "5096"
        } ],
        "text": "RETURN VISIT DATE"
      },
      "subject": {
        "reference": "Patient/adaddf3b-1d2c-11eb-8abc-0242e805c5c5",
        "type": "Patient",
        "display": "AUDIA AUDIA AUDIA (OpenMRS ID: MGFNTH)"
      },
      "encounter": {
        "reference": "Encounter/0957b2e9-1d2e-11eb-8abc-0242e805c5c5",
        "type": "Encounter"
      },
      "effectiveDateTime": "2019-01-08T00:00:00+00:00",
      "issued": "2020-11-02T20:08:32.000+00:00",
      "valueDateTime": "2019-02-07T00:00:00+00:00"
    },
    "request": {
      "method": "PUT",
      "url": "Observation/0957b2e9-1d2e-11eb-8abc-0242e805c5c5"
    }
  }, {
    "resource": {
      "resourceType": "Observation",
      "id": "09627820-1d2e-11eb-8abc-0242e805c5c5",
      "meta": {
        "versionId": "1604347712000",
        "lastUpdated": "2020-11-02T20:08:32.000+00:00"
      },
      "status": "final",
      "code": {
        "coding": [ {
          "code": "5096AAAAAAAAAAAAAAAAAAAAAAAAAAAAAAAA",
          "display": "RETURN VISIT DATE"
        }, {
          "system": "https://cielterminology.org",
          "code": "5096"
        } ],
        "text": "RETURN VISIT DATE"
      },
      "subject": {
        "reference": "Patient/adaddf3b-1d2c-11eb-8abc-0242e805c5c5",
        "type": "Patient",
        "display": "AUDIA AUDIA AUDIA (OpenMRS ID: MGFNTH)"
      },
      "encounter": {
        "reference": "Encounter/0961dadf-1d2e-11eb-8abc-0242e805c5c5",
        "type": "Encounter"
      },
      "effectiveDateTime": "2019-02-06T00:00:00+00:00",
      "issued": "2020-11-02T20:08:32.000+00:00",
      "valueDateTime": "2019-03-08T00:00:00+00:00"
    },
    "request": {
      "method": "PUT",
      "url": "Observation/0961dadf-1d2e-11eb-8abc-0242e805c5c5"
    }
  }, {
    "resource": {
      "resourceType": "Observation",
      "id": "096a6f1a-1d2e-11eb-8abc-0242e805c5c5",
      "meta": {
        "versionId": "1604347712000",
        "lastUpdated": "2020-11-02T20:08:32.000+00:00"
      },
      "status": "final",
      "code": {
        "coding": [ {
          "code": "5096AAAAAAAAAAAAAAAAAAAAAAAAAAAAAAAA",
          "display": "RETURN VISIT DATE"
        }, {
          "system": "https://cielterminology.org",
          "code": "5096"
        } ],
        "text": "RETURN VISIT DATE"
      },
      "subject": {
        "reference": "Patient/adaddf3b-1d2c-11eb-8abc-0242e805c5c5",
        "type": "Patient",
        "display": "AUDIA AUDIA AUDIA (OpenMRS ID: MGFNTH)"
      },
      "encounter": {
        "reference": "Encounter/09698f38-1d2e-11eb-8abc-0242e805c5c5",
        "type": "Encounter"
      },
      "effectiveDateTime": "2020-01-16T00:00:00+00:00",
      "issued": "2020-11-02T20:08:32.000+00:00",
      "valueDateTime": "2020-06-14T00:00:00+00:00"
    },
    "request": {
      "method": "PUT",
      "url": "Observation/09698f38-1d2e-11eb-8abc-0242e805c5c5"
    }
  }, {
    "resource": {
      "resourceType": "Observation",
      "id": "0977fab8-1d2e-11eb-8abc-0242e805c5c5",
      "meta": {
        "versionId": "1604347712000",
        "lastUpdated": "2020-11-02T20:08:32.000+00:00"
      },
      "status": "final",
      "code": {
        "coding": [ {
          "code": "5096AAAAAAAAAAAAAAAAAAAAAAAAAAAAAAAA",
          "display": "RETURN VISIT DATE"
        }, {
          "system": "https://cielterminology.org",
          "code": "5096"
        } ],
        "text": "RETURN VISIT DATE"
      },
      "subject": {
        "reference": "Patient/adaddf3b-1d2c-11eb-8abc-0242e805c5c5",
        "type": "Patient",
        "display": "AUDIA AUDIA AUDIA (OpenMRS ID: MGFNTH)"
      },
      "encounter": {
        "reference": "Encounter/0977b6e1-1d2e-11eb-8abc-0242e805c5c5",
        "type": "Encounter"
      },
      "effectiveDateTime": "2020-04-24T00:00:00+00:00",
      "issued": "2020-11-02T20:08:32.000+00:00",
      "valueDateTime": "2020-09-21T00:00:00+00:00"
    },
    "request": {
      "method": "PUT",
      "url": "Observation/0977b6e1-1d2e-11eb-8abc-0242e805c5c5"
    }
  }, {
    "resource": {
      "resourceType": "Observation",
      "id": "097f7355-1d2e-11eb-8abc-0242e805c5c5",
      "meta": {
        "versionId": "1604347712000",
        "lastUpdated": "2020-11-02T20:08:32.000+00:00"
      },
      "status": "final",
      "code": {
        "coding": [ {
          "code": "5096AAAAAAAAAAAAAAAAAAAAAAAAAAAAAAAA",
          "display": "RETURN VISIT DATE"
        }, {
          "system": "https://cielterminology.org",
          "code": "5096"
        } ],
        "text": "RETURN VISIT DATE"
      },
      "subject": {
        "reference": "Patient/adaddf3b-1d2c-11eb-8abc-0242e805c5c5",
        "type": "Patient",
        "display": "AUDIA AUDIA AUDIA (OpenMRS ID: MGFNTH)"
      },
      "encounter": {
        "reference": "Encounter/097f4cc1-1d2e-11eb-8abc-0242e805c5c5",
        "type": "Encounter"
      },
      "effectiveDateTime": "2020-10-02T00:00:00+00:00",
      "issued": "2020-11-02T20:08:32.000+00:00",
      "valueDateTime": "2020-11-01T00:00:00+00:00"
    },
    "request": {
      "method": "PUT",
      "url": "Observation/097f4cc1-1d2e-11eb-8abc-0242e805c5c5"
    }
  }, {
    "resource": {
      "resourceType": "Observation",
      "id": "0987ad9f-1d2e-11eb-8abc-0242e805c5c5",
      "meta": {
        "versionId": "1604347713000",
        "lastUpdated": "2020-11-02T20:08:33.000+00:00"
      },
      "status": "final",
      "code": {
        "coding": [ {
          "code": "5096AAAAAAAAAAAAAAAAAAAAAAAAAAAAAAAA",
          "display": "RETURN VISIT DATE"
        }, {
          "system": "https://cielterminology.org",
          "code": "5096"
        } ],
        "text": "RETURN VISIT DATE"
      },
      "subject": {
        "reference": "Patient/adaddf3b-1d2c-11eb-8abc-0242e805c5c5",
        "type": "Patient",
        "display": "AUDIA AUDIA AUDIA (OpenMRS ID: MGFNTH)"
      },
      "encounter": {
        "reference": "Encounter/0986dac1-1d2e-11eb-8abc-0242e805c5c5",
        "type": "Encounter"
      },
      "effectiveDateTime": "2020-10-19T00:00:00+00:00",
      "issued": "2020-11-02T20:08:33.000+00:00",
      "valueDateTime": "2021-01-27T00:00:00+00:00"
    },
    "request": {
      "method": "PUT",
      "url": "Observation/0986dac1-1d2e-11eb-8abc-0242e805c5c5"
    }
  }, {
    "resource": {
      "resourceType": "Observation",
      "id": "f1dfe6d2-e459-4bb0-b07c-17a02ea0c2c3",
      "meta": {
        "versionId": "1623926081000",
        "lastUpdated": "2021-06-17T10:34:41.000+00:00"
      },
      "status": "final",
      "code": {
        "coding": [ {
          "code": "5096AAAAAAAAAAAAAAAAAAAAAAAAAAAAAAAA",
          "display": "RETURN VISIT DATE"
        }, {
          "system": "https://cielterminology.org",
          "code": "5096"
        } ],
        "text": "RETURN VISIT DATE"
      },
      "subject": {
        "reference": "Patient/adaddf3b-1d2c-11eb-8abc-0242e805c5c5",
        "type": "Patient",
        "display": "AUDIA AUDIA AUDIA (OpenMRS ID: MGFNTH)"
      },
      "encounter": {
        "reference": "Encounter/42abd1d5-cfc6-46a7-a5ae-6424969e1eae",
        "type": "Encounter"
      },
      "effectiveDateTime": "2021-06-17T10:29:53+00:00",
      "issued": "2021-06-17T10:34:41.000+00:00",
      "valueDateTime": "2021-10-12T00:00:00+00:00"
    },
    "request": {
      "method": "PUT",
      "url": "Observation/42abd1d5-cfc6-46a7-a5ae-6424969e1eae"
    }
  }, {
    "resource": {
      "resourceType": "Observation",
      "id": "4d8ccc79-8122-40f2-8011-972a43dd518b",
      "meta": {
        "versionId": "1624282220000",
        "lastUpdated": "2021-06-21T13:30:20.000+00:00"
      },
      "status": "final",
      "code": {
        "coding": [ {
          "code": "5096AAAAAAAAAAAAAAAAAAAAAAAAAAAAAAAA",
          "display": "RETURN VISIT DATE"
        }, {
          "system": "https://cielterminology.org",
          "code": "5096"
        } ],
        "text": "RETURN VISIT DATE"
      },
      "subject": {
        "reference": "Patient/adaddf3b-1d2c-11eb-8abc-0242e805c5c5",
        "type": "Patient",
        "display": "AUDIA AUDIA AUDIA (OpenMRS ID: MGFNTH)"
      },
      "encounter": {
        "reference": "Encounter/9ddb615f-3982-485a-9dad-a98ddc4fd52f",
        "type": "Encounter"
      },
      "effectiveDateTime": "2021-06-21T13:29:48+00:00",
      "issued": "2021-06-21T13:30:20.000+00:00",
      "valueDateTime": "2021-10-12T00:00:00+00:00"
    },
    "request": {
      "method": "PUT",
      "url": "Observation/9ddb615f-3982-485a-9dad-a98ddc4fd52f"
    }
  }, {
    "resource": {
      "resourceType": "Observation",
      "id": "695f2e7b-4f1a-46e6-8bda-f9f89f27db71",
      "meta": {
        "versionId": "1634116775000",
        "lastUpdated": "2021-10-13T09:19:35.000+00:00"
      },
      "status": "final",
      "code": {
        "coding": [ {
          "code": "5096AAAAAAAAAAAAAAAAAAAAAAAAAAAAAAAA",
          "display": "RETURN VISIT DATE"
        }, {
          "system": "https://cielterminology.org",
          "code": "5096"
        } ],
        "text": "RETURN VISIT DATE"
      },
      "subject": {
        "reference": "Patient/adaddf3b-1d2c-11eb-8abc-0242e805c5c5",
        "type": "Patient",
        "display": "AUDIA AUDIA AUDIA (OpenMRS ID: MGFNTH)"
      },
      "encounter": {
        "reference": "Encounter/b93dec1f-e4db-4006-98ea-64a9144051cd",
        "type": "Encounter"
      },
      "effectiveDateTime": "2021-10-13T09:18:55+00:00",
      "issued": "2021-10-13T09:19:35.000+00:00",
      "valueDateTime": "2022-01-11T00:00:00+00:00"
    },
    "request": {
      "method": "PUT",
      "url": "Observation/b93dec1f-e4db-4006-98ea-64a9144051cd"
    }
  }, {
    "resource": {
      "resourceType": "Observation",
      "id": "d023e5d3-d81a-4bfe-8bb1-08fbe6f4c530",
      "meta": {
        "versionId": "1642760069000",
        "lastUpdated": "2022-01-21T10:14:29.000+00:00"
      },
      "status": "final",
      "code": {
        "coding": [ {
          "code": "5096AAAAAAAAAAAAAAAAAAAAAAAAAAAAAAAA",
          "display": "RETURN VISIT DATE"
        }, {
          "system": "https://cielterminology.org",
          "code": "5096"
        } ],
        "text": "RETURN VISIT DATE"
      },
      "subject": {
        "reference": "Patient/adaddf3b-1d2c-11eb-8abc-0242e805c5c5",
        "type": "Patient",
        "display": "AUDIA AUDIA AUDIA (OpenMRS ID: MGFNTH)"
      },
      "encounter": {
        "reference": "Encounter/68720b8e-17a8-42cb-9c68-6c5c1f971c58",
        "type": "Encounter"
      },
      "effectiveDateTime": "2022-01-21T10:13:26+00:00",
      "issued": "2022-01-21T10:14:29.000+00:00",
      "valueDateTime": "2022-04-12T00:00:00+00:00"
    },
    "request": {
      "method": "PUT",
      "url": "Observation/68720b8e-17a8-42cb-9c68-6c5c1f971c58"
    }
  }, {
    "resource": {
      "resourceType": "Observation",
      "id": "89174faa-7dd2-4d8d-9ffb-3dfa65a53de6",
      "meta": {
        "versionId": "1649775162000",
        "lastUpdated": "2022-04-12T14:52:42.000+00:00"
      },
      "status": "final",
      "code": {
        "coding": [ {
          "code": "5096AAAAAAAAAAAAAAAAAAAAAAAAAAAAAAAA",
          "display": "RETURN VISIT DATE"
        }, {
          "system": "https://cielterminology.org",
          "code": "5096"
        } ],
        "text": "RETURN VISIT DATE"
      },
      "subject": {
        "reference": "Patient/adaddf3b-1d2c-11eb-8abc-0242e805c5c5",
        "type": "Patient",
        "display": "AUDIA AUDIA AUDIA (OpenMRS ID: MGFNTH)"
      },
      "encounter": {
        "reference": "Encounter/6c58dad7-1885-45ee-8c72-ace20491d72d",
        "type": "Encounter"
      },
      "effectiveDateTime": "2022-04-12T14:51:08+00:00",
      "issued": "2022-04-12T14:52:42.000+00:00",
      "valueDateTime": "2022-09-15T00:00:00+00:00"
    },
    "request": {
      "method": "PUT",
      "url": "Observation/6c58dad7-1885-45ee-8c72-ace20491d72d"
    }
  }, {
    "resource": {
      "resourceType": "Observation",
      "id": "1e6ca713-e084-41d2-ae10-9ebef660a6fc",
      "meta": {
        "versionId": "1663341328000",
        "lastUpdated": "2022-09-16T15:15:28.000+00:00"
      },
      "status": "final",
      "code": {
        "coding": [ {
          "code": "5096AAAAAAAAAAAAAAAAAAAAAAAAAAAAAAAA",
          "display": "RETURN VISIT DATE"
        }, {
          "system": "https://cielterminology.org",
          "code": "5096"
        } ],
        "text": "RETURN VISIT DATE"
      },
      "subject": {
        "reference": "Patient/adaddf3b-1d2c-11eb-8abc-0242e805c5c5",
        "type": "Patient",
        "display": "AUDIA AUDIA AUDIA (OpenMRS ID: MGFNTH)"
      },
      "encounter": {
        "reference": "Encounter/64cd6008-3e04-471a-8672-9cfc8dbb17b1",
        "type": "Encounter"
      },
      "effectiveDateTime": "2022-09-15T15:14:00+00:00",
      "issued": "2022-09-16T15:15:28.000+00:00",
      "valueDateTime": "2023-01-24T00:00:00+00:00"
    },
    "request": {
      "method": "PUT",
      "url": "Observation/64cd6008-3e04-471a-8672-9cfc8dbb17b1"
    }
  }, {
    "resource": {
      "resourceType": "Observation",
      "id": "6b79a17d-eb4f-403d-af40-243bd18ed685",
      "meta": {
        "versionId": "1675349607000",
        "lastUpdated": "2023-02-02T14:53:27.000+00:00"
      },
      "status": "final",
      "code": {
        "coding": [ {
          "code": "5096AAAAAAAAAAAAAAAAAAAAAAAAAAAAAAAA",
          "display": "RETURN VISIT DATE"
        }, {
          "system": "https://cielterminology.org",
          "code": "5096"
        } ],
        "text": "RETURN VISIT DATE"
      },
      "subject": {
        "reference": "Patient/adaddf3b-1d2c-11eb-8abc-0242e805c5c5",
        "type": "Patient",
        "display": "AUDIA AUDIA AUDIA (OpenMRS ID: MGFNTH)"
      },
      "encounter": {
        "reference": "Encounter/0f5a1838-cc89-4020-bf54-1c5b63dcd57d",
        "type": "Encounter"
      },
      "effectiveDateTime": "2023-02-02T14:50:54+00:00",
      "issued": "2023-02-02T14:53:27.000+00:00",
      "valueDateTime": "2023-04-26T00:00:00+00:00"
    },
    "request": {
      "method": "PUT",
      "url": "Observation/0f5a1838-cc89-4020-bf54-1c5b63dcd57d"
    }
  }, {
    "resource": {
      "resourceType": "Observation",
      "id": "3883a116-80ca-49a4-9ef6-3e59e5d9b00e",
      "meta": {
        "versionId": "1684771426000",
        "lastUpdated": "2023-05-22T16:03:46.000+00:00"
      },
      "status": "final",
      "code": {
        "coding": [ {
          "code": "5096AAAAAAAAAAAAAAAAAAAAAAAAAAAAAAAA",
          "display": "RETURN VISIT DATE"
        }, {
          "system": "https://cielterminology.org",
          "code": "5096"
        } ],
        "text": "RETURN VISIT DATE"
      },
      "subject": {
        "reference": "Patient/adaddf3b-1d2c-11eb-8abc-0242e805c5c5",
        "type": "Patient",
        "display": "AUDIA AUDIA AUDIA (OpenMRS ID: MGFNTH)"
      },
      "encounter": {
        "reference": "Encounter/912976c5-6729-4883-83e4-8213fe79e044",
        "type": "Encounter"
      },
      "effectiveDateTime": "2023-04-26T16:01:00+00:00",
      "issued": "2023-05-22T16:03:46.000+00:00",
      "valueDateTime": "2023-07-25T00:00:00+00:00"
    },
    "request": {
      "method": "PUT",
      "url": "Observation/912976c5-6729-4883-83e4-8213fe79e044"
    }
  }, {
    "resource": {
      "resourceType": "Observation",
      "id": "28d3c697-636d-4724-a195-a9c560fb333b",
      "meta": {
        "versionId": "1690288393000",
        "lastUpdated": "2023-07-25T12:33:13.000+00:00"
      },
      "status": "final",
      "code": {
        "coding": [ {
          "code": "5096AAAAAAAAAAAAAAAAAAAAAAAAAAAAAAAA",
          "display": "RETURN VISIT DATE"
        }, {
          "system": "https://cielterminology.org",
          "code": "5096"
        } ],
        "text": "RETURN VISIT DATE"
      },
      "subject": {
        "reference": "Patient/adaddf3b-1d2c-11eb-8abc-0242e805c5c5",
        "type": "Patient",
        "display": "AUDIA AUDIA AUDIA (OpenMRS ID: MGFNTH)"
      },
      "encounter": {
        "reference": "Encounter/0638e238-47ef-4385-ae28-2c03f5b04d94",
        "type": "Encounter"
      },
      "effectiveDateTime": "2023-07-25T12:30:24+00:00",
      "issued": "2023-07-25T12:33:13.000+00:00",
      "valueDateTime": "2023-10-25T00:00:00+00:00"
    },
    "request": {
      "method": "PUT",
      "url": "Observation/0638e238-47ef-4385-ae28-2c03f5b04d94"
    }
  }, {
    "resource": {
      "resourceType": "Observation",
      "id": "5d979535-3fa2-4c8e-b195-91cc670e22d5",
      "meta": {
        "versionId": "1698335860000",
        "lastUpdated": "2023-10-26T15:57:40.000+00:00"
      },
      "status": "final",
      "code": {
        "coding": [ {
          "code": "5096AAAAAAAAAAAAAAAAAAAAAAAAAAAAAAAA",
          "display": "RETURN VISIT DATE"
        }, {
          "system": "https://cielterminology.org",
          "code": "5096"
        } ],
        "text": "RETURN VISIT DATE"
      },
      "subject": {
        "reference": "Patient/adaddf3b-1d2c-11eb-8abc-0242e805c5c5",
        "type": "Patient",
        "display": "AUDIA AUDIA AUDIA (OpenMRS ID: MGFNTH)"
      },
      "encounter": {
        "reference": "Encounter/42555c8d-7faf-4a3d-93eb-04b0308e55c3",
        "type": "Encounter"
      },
      "effectiveDateTime": "2023-10-25T15:25:00+00:00",
      "issued": "2023-10-26T15:57:40.000+00:00",
      "valueDateTime": "2023-11-07T00:00:00+00:00"
    },
    "request": {
      "method": "PUT",
      "url": "Observation/42555c8d-7faf-4a3d-93eb-04b0308e55c3"
    }
  }, {
    "resource": {
      "resourceType": "Patient",
      "id": "adbbf4c0-1d2c-11eb-8abc-0242e805c5c5",
      "meta": {
        "versionId": "1604347129000",
        "lastUpdated": "2020-11-02T19:58:49.000+00:00"
      },
      "identifier": [ {
        "id": "adc80be8-1d2c-11eb-8abc-0242e805c5c5",
        "extension": [ {
          "url": "http://fhir.openmrs.org/ext/patient/identifier#location",
          "valueReference": {
            "reference": "Location/a92f9952-1c4c-4659-893b-a6b56a16b1df",
            "type": "Location",
            "display": "Ngarua Health Centre"
          }
        } ],
        "use": "official",
        "type": {
          "coding": [ {
            "code": "dfacd928-0370-4315-99d7-6ec1c9f7ae76"
          } ],
          "text": "OpenMRS ID"
        },
        "value": "MGFNUF"
      }, {
        "id": "adbc5a3f-1d2c-11eb-8abc-0242e805c5c5",
        "extension": [ {
          "url": "http://fhir.openmrs.org/ext/patient/identifier#location",
          "valueReference": {
            "reference": "Location/a92f9952-1c4c-4659-893b-a6b56a16b1df",
            "type": "Location",
            "display": "Ngarua Health Centre"
          }
        } ],
        "use": "usual",
        "type": {
          "coding": [ {
            "code": "05ee9cf4-7242-4a17-b4d4-00f707265c8a"
          } ],
          "text": "Unique Patient Number"
        },
        "value": "1533900254"
      }, {
        "id": "25efcc37-45a8-4c9b-a2c5-9f12a1f36260",
        "extension": [ {
          "url": "http://fhir.openmrs.org/ext/patient/identifier#location",
          "valueReference": {
            "reference": "Location/a92f9952-1c4c-4659-893b-a6b56a16b1df",
            "type": "Location",
            "display": "Ngarua Health Centre"
          }
        } ],
        "use": "usual",
        "type": {
          "coding": [ {
            "code": "49af6cdc-7968-4abb-bf46-de10d7f4859f"
          } ],
          "text": "National ID"
        },
        "value": "89977886"
      }, {
        "id": "0bc4ad91-ab0e-4b71-817b-29896c2c2676",
        "extension": [ {
          "url": "http://fhir.openmrs.org/ext/patient/identifier#location",
          "valueReference": {
            "reference": "Location/a92f9952-1c4c-4659-893b-a6b56a16b1df",
            "type": "Location",
            "display": "Ngarua Health Centre"
          }
        } ],
        "use": "usual",
        "type": {
          "coding": [ {
            "code": "f85081e2-b4be-4e48-b3a4-7994b69bb101"
          } ],
          "text": "National Unique patient identifier"
        },
        "value": "0000000770000"
      } ],
      "active": true,
      "name": [ {
        "id": "adbc1118-1d2c-11eb-8abc-0242e805c5c5",
        "family": "Toroitich",
        "given": [ "Toroitich", "Toroitich" ]
      } ],
      "gender": "female",
      "birthDate": "1968-12-22",
      "deceasedBoolean": false,
      "address": [ {
        "id": "10741455-594e-4cce-bdf2-6a98808c4f05",
        "extension": [ {
          "url": "http://fhir.openmrs.org/ext/address",
          "extension": [ {
            "url": "http://fhir.openmrs.org/ext/address#address1",
            "valueString": "203 address1"
          }, {
            "url": "http://fhir.openmrs.org/ext/address#address4",
            "valueString": "Marmanet"
          } ]
        } ],
        "use": "home",
        "city": "karandi",
        "district": "Laikipia",
        "state": "Laikipia West"
      } ]
    },
    "request": {
      "method": "PUT",
      "url": "Patient/adbbf4c0-1d2c-11eb-8abc-0242e805c5c5"
    }
  }, {
    "resource": {
      "resourceType": "Observation",
      "id": "9512b866-1975-46ef-8598-3e200db4ffeb",
      "meta": {
        "versionId": "1650978537000",
        "lastUpdated": "2022-04-26T13:08:57.000+00:00"
      },
      "status": "final",
      "code": {
        "coding": [ {
          "code": "160540AAAAAAAAAAAAAAAAAAAAAAAAAAAAAA",
          "display": "Method of enrollment"
        }, {
          "system": "http://loinc.org",
          "code": "45252-4"
        }, {
          "system": "https://cielterminology.org",
          "code": "160540"
        } ],
        "text": "Method of enrollment"
      },
      "subject": {
        "reference": "Patient/adbbf4c0-1d2c-11eb-8abc-0242e805c5c5",
        "type": "Patient",
        "display": "Toroitich Toroitich Toroitich (OpenMRS ID: MGFNUF)"
      },
      "encounter": {
        "reference": "Encounter/ffa933d4-1d2c-11eb-8abc-0242e805c5c5",
        "type": "Encounter"
      },
      "effectiveDateTime": "2015-12-11T00:00:00+00:00",
      "issued": "2022-04-26T13:08:57.000+00:00",
      "valueCodeableConcept": {
        "coding": [ {
          "code": "160542AAAAAAAAAAAAAAAAAAAAAAAAAAAAAA",
          "display": "Outpatient department"
        }, {
          "system": "https://cielterminology.org",
          "code": "160542"
        }, {
          "system": "http://snomed.info/sct/",
          "code": "33022008"
        } ],
        "text": "Outpatient department"
      }
    },
    "request": {
      "method": "PUT",
      "url": "Observation/ffa933d4-1d2c-11eb-8abc-0242e805c5c5"
    }
  }, {
    "resource": {
      "resourceType": "Observation",
      "id": "6f12f621-1d2e-11eb-8abc-0242e805c5c5",
      "meta": {
        "versionId": "1604347883000",
        "lastUpdated": "2020-11-02T20:11:23.000+00:00"
      },
      "status": "final",
      "code": {
        "coding": [ {
          "code": "1193AAAAAAAAAAAAAAAAAAAAAAAAAAAAAAAA",
          "display": "CURRENT DRUGS USED"
        }, {
          "system": "https://cielterminology.org",
          "code": "1193"
        } ],
        "text": "CURRENT DRUGS USED"
      },
      "subject": {
        "reference": "Patient/adbbf4c0-1d2c-11eb-8abc-0242e805c5c5",
        "type": "Patient",
        "display": "Toroitich Toroitich Toroitich (OpenMRS ID: MGFNUF)"
      },
      "encounter": {
        "reference": "Encounter/6f12b7f2-1d2e-11eb-8abc-0242e805c5c5",
        "type": "Encounter"
      },
      "effectiveDateTime": "2016-07-29T00:00:00+00:00",
      "issued": "2020-11-02T20:11:23.000+00:00",
      "valueCodeableConcept": {
        "coding": [ {
          "code": "164505AAAAAAAAAAAAAAAAAAAAAAAAAAAAAA",
          "display": "Lamivudine / Efavirenz / Tenofovir"
        }, {
          "system": "https://cielterminology.org",
          "code": "164505"
        } ],
        "text": "Lamivudine / Efavirenz / Tenofovir"
      }
    },
    "request": {
      "method": "PUT",
      "url": "Observation/6f12b7f2-1d2e-11eb-8abc-0242e805c5c5"
    }
  }, {
    "resource": {
      "resourceType": "Observation",
      "id": "099147f4-1d2e-11eb-8abc-0242e805c5c5",
      "meta": {
        "versionId": "1604347713000",
        "lastUpdated": "2020-11-02T20:08:33.000+00:00"
      },
      "status": "final",
      "code": {
        "coding": [ {
          "code": "5096AAAAAAAAAAAAAAAAAAAAAAAAAAAAAAAA",
          "display": "RETURN VISIT DATE"
        }, {
          "system": "https://cielterminology.org",
          "code": "5096"
        } ],
        "text": "RETURN VISIT DATE"
      },
      "subject": {
        "reference": "Patient/adbbf4c0-1d2c-11eb-8abc-0242e805c5c5",
        "type": "Patient",
        "display": "Toroitich Toroitich Toroitich (OpenMRS ID: MGFNUF)"
      },
      "encounter": {
        "reference": "Encounter/0991071f-1d2e-11eb-8abc-0242e805c5c5",
        "type": "Encounter"
      },
      "effectiveDateTime": "2016-07-29T00:00:00+00:00",
      "issued": "2020-11-02T20:08:33.000+00:00",
      "valueDateTime": "2016-09-27T00:00:00+00:00"
    },
    "request": {
      "method": "PUT",
      "url": "Observation/0991071f-1d2e-11eb-8abc-0242e805c5c5"
    }
  }, {
    "resource": {
      "resourceType": "Observation",
      "id": "09993956-1d2e-11eb-8abc-0242e805c5c5",
      "meta": {
        "versionId": "1604347713000",
        "lastUpdated": "2020-11-02T20:08:33.000+00:00"
      },
      "status": "final",
      "code": {
        "coding": [ {
          "code": "5096AAAAAAAAAAAAAAAAAAAAAAAAAAAAAAAA",
          "display": "RETURN VISIT DATE"
        }, {
          "system": "https://cielterminology.org",
          "code": "5096"
        } ],
        "text": "RETURN VISIT DATE"
      },
      "subject": {
        "reference": "Patient/adbbf4c0-1d2c-11eb-8abc-0242e805c5c5",
        "type": "Patient",
        "display": "Toroitich Toroitich Toroitich (OpenMRS ID: MGFNUF)"
      },
      "encounter": {
        "reference": "Encounter/0998b004-1d2e-11eb-8abc-0242e805c5c5",
        "type": "Encounter"
      },
      "effectiveDateTime": "2017-09-15T00:00:00+00:00",
      "issued": "2020-11-02T20:08:33.000+00:00",
      "valueDateTime": "2017-11-14T00:00:00+00:00"
    },
    "request": {
      "method": "PUT",
      "url": "Observation/0998b004-1d2e-11eb-8abc-0242e805c5c5"
    }
  }, {
    "resource": {
      "resourceType": "Observation",
      "id": "09a34cea-1d2e-11eb-8abc-0242e805c5c5",
      "meta": {
        "versionId": "1604347713000",
        "lastUpdated": "2020-11-02T20:08:33.000+00:00"
      },
      "status": "final",
      "code": {
        "coding": [ {
          "code": "5096AAAAAAAAAAAAAAAAAAAAAAAAAAAAAAAA",
          "display": "RETURN VISIT DATE"
        }, {
          "system": "https://cielterminology.org",
          "code": "5096"
        } ],
        "text": "RETURN VISIT DATE"
      },
      "subject": {
        "reference": "Patient/adbbf4c0-1d2c-11eb-8abc-0242e805c5c5",
        "type": "Patient",
        "display": "Toroitich Toroitich Toroitich (OpenMRS ID: MGFNUF)"
      },
      "encounter": {
        "reference": "Encounter/09a2d015-1d2e-11eb-8abc-0242e805c5c5",
        "type": "Encounter"
      },
      "effectiveDateTime": "2018-02-14T00:00:00+00:00",
      "issued": "2020-11-02T20:08:33.000+00:00",
      "valueDateTime": "2018-05-29T00:00:00+00:00"
    },
    "request": {
      "method": "PUT",
      "url": "Observation/09a2d015-1d2e-11eb-8abc-0242e805c5c5"
    }
  }, {
    "resource": {
      "resourceType": "Observation",
      "id": "09aaeaa8-1d2e-11eb-8abc-0242e805c5c5",
      "meta": {
        "versionId": "1604347713000",
        "lastUpdated": "2020-11-02T20:08:33.000+00:00"
      },
      "status": "final",
      "code": {
        "coding": [ {
          "code": "5096AAAAAAAAAAAAAAAAAAAAAAAAAAAAAAAA",
          "display": "RETURN VISIT DATE"
        }, {
          "system": "https://cielterminology.org",
          "code": "5096"
        } ],
        "text": "RETURN VISIT DATE"
      },
      "subject": {
        "reference": "Patient/adbbf4c0-1d2c-11eb-8abc-0242e805c5c5",
        "type": "Patient",
        "display": "Toroitich Toroitich Toroitich (OpenMRS ID: MGFNUF)"
      },
      "encounter": {
        "reference": "Encounter/09aa7224-1d2e-11eb-8abc-0242e805c5c5",
        "type": "Encounter"
      },
      "effectiveDateTime": "2018-05-28T00:00:00+00:00",
      "issued": "2020-11-02T20:08:33.000+00:00",
      "valueDateTime": "2018-08-28T00:00:00+00:00"
    },
    "request": {
      "method": "PUT",
      "url": "Observation/09aa7224-1d2e-11eb-8abc-0242e805c5c5"
    }
  }, {
    "resource": {
      "resourceType": "Observation",
      "id": "09b52773-1d2e-11eb-8abc-0242e805c5c5",
      "meta": {
        "versionId": "1604347713000",
        "lastUpdated": "2020-11-02T20:08:33.000+00:00"
      },
      "status": "final",
      "code": {
        "coding": [ {
          "code": "5096AAAAAAAAAAAAAAAAAAAAAAAAAAAAAAAA",
          "display": "RETURN VISIT DATE"
        }, {
          "system": "https://cielterminology.org",
          "code": "5096"
        } ],
        "text": "RETURN VISIT DATE"
      },
      "subject": {
        "reference": "Patient/adbbf4c0-1d2c-11eb-8abc-0242e805c5c5",
        "type": "Patient",
        "display": "Toroitich Toroitich Toroitich (OpenMRS ID: MGFNUF)"
      },
      "encounter": {
        "reference": "Encounter/09b4a62e-1d2e-11eb-8abc-0242e805c5c5",
        "type": "Encounter"
      },
      "effectiveDateTime": "2018-08-28T00:00:00+00:00",
      "issued": "2020-11-02T20:08:33.000+00:00",
      "valueDateTime": "2019-02-12T00:00:00+00:00"
    },
    "request": {
      "method": "PUT",
      "url": "Observation/09b4a62e-1d2e-11eb-8abc-0242e805c5c5"
    }
  }, {
    "resource": {
      "resourceType": "Observation",
      "id": "09c48f84-1d2e-11eb-8abc-0242e805c5c5",
      "meta": {
        "versionId": "1604347713000",
        "lastUpdated": "2020-11-02T20:08:33.000+00:00"
      },
      "status": "final",
      "code": {
        "coding": [ {
          "code": "5096AAAAAAAAAAAAAAAAAAAAAAAAAAAAAAAA",
          "display": "RETURN VISIT DATE"
        }, {
          "system": "https://cielterminology.org",
          "code": "5096"
        } ],
        "text": "RETURN VISIT DATE"
      },
      "subject": {
        "reference": "Patient/adbbf4c0-1d2c-11eb-8abc-0242e805c5c5",
        "type": "Patient",
        "display": "Toroitich Toroitich Toroitich (OpenMRS ID: MGFNUF)"
      },
      "encounter": {
        "reference": "Encounter/09c3fd1d-1d2e-11eb-8abc-0242e805c5c5",
        "type": "Encounter"
      },
      "effectiveDateTime": "2018-11-21T00:00:00+00:00",
      "issued": "2020-11-02T20:08:33.000+00:00",
      "valueDateTime": "2019-02-19T00:00:00+00:00"
    },
    "request": {
      "method": "PUT",
      "url": "Observation/09c3fd1d-1d2e-11eb-8abc-0242e805c5c5"
    }
  }, {
    "resource": {
      "resourceType": "Observation",
      "id": "09d2854e-1d2e-11eb-8abc-0242e805c5c5",
      "meta": {
        "versionId": "1604347713000",
        "lastUpdated": "2020-11-02T20:08:33.000+00:00"
      },
      "status": "final",
      "code": {
        "coding": [ {
          "code": "5096AAAAAAAAAAAAAAAAAAAAAAAAAAAAAAAA",
          "display": "RETURN VISIT DATE"
        }, {
          "system": "https://cielterminology.org",
          "code": "5096"
        } ],
        "text": "RETURN VISIT DATE"
      },
      "subject": {
        "reference": "Patient/adbbf4c0-1d2c-11eb-8abc-0242e805c5c5",
        "type": "Patient",
        "display": "Toroitich Toroitich Toroitich (OpenMRS ID: MGFNUF)"
      },
      "encounter": {
        "reference": "Encounter/09d1fc09-1d2e-11eb-8abc-0242e805c5c5",
        "type": "Encounter"
      },
      "effectiveDateTime": "2019-02-12T00:00:00+00:00",
      "issued": "2020-11-02T20:08:33.000+00:00",
      "valueDateTime": "2019-08-13T00:00:00+00:00"
    },
    "request": {
      "method": "PUT",
      "url": "Observation/09d1fc09-1d2e-11eb-8abc-0242e805c5c5"
    }
  }, {
    "resource": {
      "resourceType": "Observation",
      "id": "09da5a50-1d2e-11eb-8abc-0242e805c5c5",
      "meta": {
        "versionId": "1604347713000",
        "lastUpdated": "2020-11-02T20:08:33.000+00:00"
      },
      "status": "final",
      "code": {
        "coding": [ {
          "code": "5096AAAAAAAAAAAAAAAAAAAAAAAAAAAAAAAA",
          "display": "RETURN VISIT DATE"
        }, {
          "system": "https://cielterminology.org",
          "code": "5096"
        } ],
        "text": "RETURN VISIT DATE"
      },
      "subject": {
        "reference": "Patient/adbbf4c0-1d2c-11eb-8abc-0242e805c5c5",
        "type": "Patient",
        "display": "Toroitich Toroitich Toroitich (OpenMRS ID: MGFNUF)"
      },
      "encounter": {
        "reference": "Encounter/09d990ec-1d2e-11eb-8abc-0242e805c5c5",
        "type": "Encounter"
      },
      "effectiveDateTime": "2020-01-14T00:00:00+00:00",
      "issued": "2020-11-02T20:08:33.000+00:00",
      "valueDateTime": "2020-07-16T00:00:00+00:00"
    },
    "request": {
      "method": "PUT",
      "url": "Observation/09d990ec-1d2e-11eb-8abc-0242e805c5c5"
    }
  }, {
    "resource": {
      "resourceType": "Observation",
      "id": "09e723de-1d2e-11eb-8abc-0242e805c5c5",
      "meta": {
        "versionId": "1604347713000",
        "lastUpdated": "2020-11-02T20:08:33.000+00:00"
      },
      "status": "final",
      "code": {
        "coding": [ {
          "code": "5096AAAAAAAAAAAAAAAAAAAAAAAAAAAAAAAA",
          "display": "RETURN VISIT DATE"
        }, {
          "system": "https://cielterminology.org",
          "code": "5096"
        } ],
        "text": "RETURN VISIT DATE"
      },
      "subject": {
        "reference": "Patient/adbbf4c0-1d2c-11eb-8abc-0242e805c5c5",
        "type": "Patient",
        "display": "Toroitich Toroitich Toroitich (OpenMRS ID: MGFNUF)"
      },
      "encounter": {
        "reference": "Encounter/09e65035-1d2e-11eb-8abc-0242e805c5c5",
        "type": "Encounter"
      },
      "effectiveDateTime": "2020-07-16T00:00:00+00:00",
      "issued": "2020-11-02T20:08:33.000+00:00",
      "valueDateTime": "2021-02-01T00:00:00+00:00"
    },
    "request": {
      "method": "PUT",
      "url": "Observation/09e65035-1d2e-11eb-8abc-0242e805c5c5"
    }
  }, {
    "resource": {
      "resourceType": "Observation",
      "id": "61f8ed51-5bbb-490d-a31f-58a8bc53c182",
      "meta": {
        "versionId": "1610465048000",
        "lastUpdated": "2021-01-12T15:24:08.000+00:00"
      },
      "status": "final",
      "code": {
        "coding": [ {
          "code": "5096AAAAAAAAAAAAAAAAAAAAAAAAAAAAAAAA",
          "display": "RETURN VISIT DATE"
        }, {
          "system": "https://cielterminology.org",
          "code": "5096"
        } ],
        "text": "RETURN VISIT DATE"
      },
      "subject": {
        "reference": "Patient/adbbf4c0-1d2c-11eb-8abc-0242e805c5c5",
        "type": "Patient",
        "display": "Toroitich Toroitich Toroitich (OpenMRS ID: MGFNUF)"
      },
      "encounter": {
        "reference": "Encounter/174d31f8-4399-4fcb-94a4-b322fac8b078",
        "type": "Encounter"
      },
      "effectiveDateTime": "2021-01-12T15:21:35+00:00",
      "issued": "2021-01-12T15:24:08.000+00:00",
      "valueDateTime": "2021-05-20T00:00:00+00:00"
    },
    "request": {
      "method": "PUT",
      "url": "Observation/174d31f8-4399-4fcb-94a4-b322fac8b078"
    }
  }, {
    "resource": {
      "resourceType": "Observation",
      "id": "0a1c9840-9765-472b-a622-a36e403a1694",
      "meta": {
        "versionId": "1621505860000",
        "lastUpdated": "2021-05-20T10:17:40.000+00:00"
      },
      "status": "final",
      "code": {
        "coding": [ {
          "code": "5096AAAAAAAAAAAAAAAAAAAAAAAAAAAAAAAA",
          "display": "RETURN VISIT DATE"
        }, {
          "system": "https://cielterminology.org",
          "code": "5096"
        } ],
        "text": "RETURN VISIT DATE"
      },
      "subject": {
        "reference": "Patient/adbbf4c0-1d2c-11eb-8abc-0242e805c5c5",
        "type": "Patient",
        "display": "Toroitich Toroitich Toroitich (OpenMRS ID: MGFNUF)"
      },
      "encounter": {
        "reference": "Encounter/017f7cbf-c080-4cb0-8509-b975ca6fcc70",
        "type": "Encounter"
      },
      "effectiveDateTime": "2021-05-20T10:16:03+00:00",
      "issued": "2021-05-20T10:17:40.000+00:00",
      "valueDateTime": "2021-11-18T00:00:00+00:00"
    },
    "request": {
      "method": "PUT",
      "url": "Observation/017f7cbf-c080-4cb0-8509-b975ca6fcc70"
    }
  }, {
    "resource": {
      "resourceType": "Observation",
      "id": "f24e0798-a44a-4e52-91e0-3f38a25bda09",
      "meta": {
        "versionId": "1637660415000",
        "lastUpdated": "2021-11-23T09:40:15.000+00:00"
      },
      "status": "final",
      "code": {
        "coding": [ {
          "code": "5096AAAAAAAAAAAAAAAAAAAAAAAAAAAAAAAA",
          "display": "RETURN VISIT DATE"
        }, {
          "system": "https://cielterminology.org",
          "code": "5096"
        } ],
        "text": "RETURN VISIT DATE"
      },
      "subject": {
        "reference": "Patient/adbbf4c0-1d2c-11eb-8abc-0242e805c5c5",
        "type": "Patient",
        "display": "Toroitich Toroitich Toroitich (OpenMRS ID: MGFNUF)"
      },
      "encounter": {
        "reference": "Encounter/59bdec8e-e82e-4883-b179-3179d21346c7",
        "type": "Encounter"
      },
      "effectiveDateTime": "2021-11-23T09:39:33+00:00",
      "issued": "2021-11-23T09:40:15.000+00:00",
      "valueDateTime": "2022-02-22T00:00:00+00:00"
    },
    "request": {
      "method": "PUT",
      "url": "Observation/59bdec8e-e82e-4883-b179-3179d21346c7"
    }
  }, {
    "resource": {
      "resourceType": "Observation",
      "id": "c615bf02-b575-40e7-b8be-1b8af5285fc6",
      "meta": {
        "versionId": "1645607382000",
        "lastUpdated": "2022-02-23T09:09:42.000+00:00"
      },
      "status": "final",
      "code": {
        "coding": [ {
          "code": "5096AAAAAAAAAAAAAAAAAAAAAAAAAAAAAAAA",
          "display": "RETURN VISIT DATE"
        }, {
          "system": "https://cielterminology.org",
          "code": "5096"
        } ],
        "text": "RETURN VISIT DATE"
      },
      "subject": {
        "reference": "Patient/adbbf4c0-1d2c-11eb-8abc-0242e805c5c5",
        "type": "Patient",
        "display": "Toroitich Toroitich Toroitich (OpenMRS ID: MGFNUF)"
      },
      "encounter": {
        "reference": "Encounter/660c4fc6-301e-4767-99d5-e2bd38b1698f",
        "type": "Encounter"
      },
      "effectiveDateTime": "2022-02-23T09:08:25+00:00",
      "issued": "2022-02-23T09:09:42.000+00:00",
      "valueDateTime": "2022-06-16T00:00:00+00:00"
    },
    "request": {
      "method": "PUT",
      "url": "Observation/660c4fc6-301e-4767-99d5-e2bd38b1698f"
    }
  }, {
    "resource": {
      "resourceType": "Observation",
      "id": "6b91b7ad-fab4-4692-91d7-b366d7ec982c",
      "meta": {
        "versionId": "1655393485000",
        "lastUpdated": "2022-06-16T15:31:25.000+00:00"
      },
      "status": "final",
      "code": {
        "coding": [ {
          "code": "5096AAAAAAAAAAAAAAAAAAAAAAAAAAAAAAAA",
          "display": "RETURN VISIT DATE"
        }, {
          "system": "https://cielterminology.org",
          "code": "5096"
        } ],
        "text": "RETURN VISIT DATE"
      },
      "subject": {
        "reference": "Patient/adbbf4c0-1d2c-11eb-8abc-0242e805c5c5",
        "type": "Patient",
        "display": "Toroitich Toroitich Toroitich (OpenMRS ID: MGFNUF)"
      },
      "encounter": {
        "reference": "Encounter/9017a14d-5a54-4106-979b-658ef179f1e7",
        "type": "Encounter"
      },
      "effectiveDateTime": "2022-06-16T15:29:55+00:00",
      "issued": "2022-06-16T15:31:25.000+00:00",
      "valueDateTime": "2023-01-17T00:00:00+00:00"
    },
    "request": {
      "method": "PUT",
      "url": "Observation/9017a14d-5a54-4106-979b-658ef179f1e7"
    }
  }, {
    "resource": {
      "resourceType": "Observation",
      "id": "08899c02-564f-45fb-b01e-8853c674f845",
      "meta": {
        "versionId": "1675852914000",
        "lastUpdated": "2023-02-08T10:41:54.000+00:00"
      },
      "status": "final",
      "code": {
        "coding": [ {
          "code": "5096AAAAAAAAAAAAAAAAAAAAAAAAAAAAAAAA",
          "display": "RETURN VISIT DATE"
        }, {
          "system": "https://cielterminology.org",
          "code": "5096"
        } ],
        "text": "RETURN VISIT DATE"
      },
      "subject": {
        "reference": "Patient/adbbf4c0-1d2c-11eb-8abc-0242e805c5c5",
        "type": "Patient",
        "display": "Toroitich Toroitich Toroitich (OpenMRS ID: MGFNUF)"
      },
      "encounter": {
        "reference": "Encounter/30ee10d6-662f-4ebe-8bb5-ccfcaee79c2e",
        "type": "Encounter"
      },
      "effectiveDateTime": "2023-01-17T10:29:00+00:00",
      "issued": "2023-02-08T10:41:54.000+00:00",
      "valueDateTime": "2023-08-15T00:00:00+00:00"
    },
    "request": {
      "method": "PUT",
      "url": "Observation/30ee10d6-662f-4ebe-8bb5-ccfcaee79c2e"
    }
  }, {
    "resource": {
      "resourceType": "Observation",
      "id": "0f300b84-0690-4db2-a582-6cbdf484da51",
      "meta": {
        "versionId": "1692102378000",
        "lastUpdated": "2023-08-15T12:26:18.000+00:00"
      },
      "status": "final",
      "code": {
        "coding": [ {
          "code": "5096AAAAAAAAAAAAAAAAAAAAAAAAAAAAAAAA",
          "display": "RETURN VISIT DATE"
        }, {
          "system": "https://cielterminology.org",
          "code": "5096"
        } ],
        "text": "RETURN VISIT DATE"
      },
      "subject": {
        "reference": "Patient/adbbf4c0-1d2c-11eb-8abc-0242e805c5c5",
        "type": "Patient",
        "display": "Toroitich Toroitich Toroitich (OpenMRS ID: MGFNUF)"
      },
      "encounter": {
        "reference": "Encounter/594b41f4-4fcc-428a-86fe-4d9f2779b1f2",
        "type": "Encounter"
      },
      "effectiveDateTime": "2023-08-15T12:21:31+00:00",
      "issued": "2023-08-15T12:26:18.000+00:00",
      "valueDateTime": "2024-01-11T00:00:00+00:00"
    },
    "request": {
      "method": "PUT",
      "url": "Observation/594b41f4-4fcc-428a-86fe-4d9f2779b1f2"
    }
  }, {
    "resource": {
      "resourceType": "Patient",
      "id": "adc8310e-1d2c-11eb-8abc-0242e805c5c5",
      "meta": {
        "versionId": "1604347129000",
        "lastUpdated": "2020-11-02T19:58:49.000+00:00"
      },
      "identifier": [ {
        "id": "add8348b-1d2c-11eb-8abc-0242e805c5c5",
        "extension": [ {
          "url": "http://fhir.openmrs.org/ext/patient/identifier#location",
          "valueReference": {
            "reference": "Location/a92f9952-1c4c-4659-893b-a6b56a16b1df",
            "type": "Location",
            "display": "Ngarua Health Centre"
          }
        } ],
        "use": "official",
        "type": {
          "coding": [ {
            "code": "dfacd928-0370-4315-99d7-6ec1c9f7ae76"
          } ],
          "text": "OpenMRS ID"
        },
        "value": "MGFNVD"
      }, {
        "id": "adc88660-1d2c-11eb-8abc-0242e805c5c5",
        "extension": [ {
          "url": "http://fhir.openmrs.org/ext/patient/identifier#location",
          "valueReference": {
            "reference": "Location/a92f9952-1c4c-4659-893b-a6b56a16b1df",
            "type": "Location",
            "display": "Ngarua Health Centre"
          }
        } ],
        "use": "usual",
        "type": {
          "coding": [ {
            "code": "05ee9cf4-7242-4a17-b4d4-00f707265c8a"
          } ],
          "text": "Unique Patient Number"
        },
        "value": "15339000259"
      } ],
      "active": true,
      "name": [ {
        "id": "adc84b41-1d2c-11eb-8abc-0242e805c5c5",
        "family": "faith",
        "given": [ "faith", "faith" ]
      } ],
      "gender": "female",
      "birthDate": "1977-02-15",
      "deceasedBoolean": false,
      "address": [ {
        "id": "adc86093-1d2c-11eb-8abc-0242e805c5c5",
        "extension": [ {
          "url": "http://fhir.openmrs.org/ext/address",
          "extension": [ {
            "url": "http://fhir.openmrs.org/ext/address#address1",
            "valueString": "204 address1"
          } ]
        } ],
        "use": "old"
      } ]
    },
    "request": {
      "method": "PUT",
      "url": "Patient/adc8310e-1d2c-11eb-8abc-0242e805c5c5"
    }
  }, {
    "resource": {
      "resourceType": "Observation",
      "id": "6f3bc12e-1d2e-11eb-8abc-0242e805c5c5",
      "meta": {
        "versionId": "1604347883000",
        "lastUpdated": "2020-11-02T20:11:23.000+00:00"
      },
      "status": "final",
      "code": {
        "coding": [ {
          "code": "1193AAAAAAAAAAAAAAAAAAAAAAAAAAAAAAAA",
          "display": "CURRENT DRUGS USED"
        }, {
          "system": "https://cielterminology.org",
          "code": "1193"
        } ],
        "text": "CURRENT DRUGS USED"
      },
      "subject": {
        "reference": "Patient/adc8310e-1d2c-11eb-8abc-0242e805c5c5",
        "type": "Patient",
        "display": "faith faith faith (OpenMRS ID: MGFNVD)"
      },
      "encounter": {
        "reference": "Encounter/6f3b7ee9-1d2e-11eb-8abc-0242e805c5c5",
        "type": "Encounter"
      },
      "effectiveDateTime": "2016-08-02T00:00:00+00:00",
      "issued": "2020-11-02T20:11:23.000+00:00",
      "valueCodeableConcept": {
        "coding": [ {
          "code": "164505AAAAAAAAAAAAAAAAAAAAAAAAAAAAAA",
          "display": "Lamivudine / Efavirenz / Tenofovir"
        }, {
          "system": "https://cielterminology.org",
          "code": "164505"
        } ],
        "text": "Lamivudine / Efavirenz / Tenofovir"
      }
    },
    "request": {
      "method": "PUT",
      "url": "Observation/6f3b7ee9-1d2e-11eb-8abc-0242e805c5c5"
    }
  }, {
    "resource": {
      "resourceType": "Observation",
      "id": "09ee09a2-1d2e-11eb-8abc-0242e805c5c5",
      "meta": {
        "versionId": "1604347713000",
        "lastUpdated": "2020-11-02T20:08:33.000+00:00"
      },
      "status": "final",
      "code": {
        "coding": [ {
          "code": "5096AAAAAAAAAAAAAAAAAAAAAAAAAAAAAAAA",
          "display": "RETURN VISIT DATE"
        }, {
          "system": "https://cielterminology.org",
          "code": "5096"
        } ],
        "text": "RETURN VISIT DATE"
      },
      "subject": {
        "reference": "Patient/adc8310e-1d2c-11eb-8abc-0242e805c5c5",
        "type": "Patient",
        "display": "faith faith faith (OpenMRS ID: MGFNVD)"
      },
      "encounter": {
        "reference": "Encounter/09edd3ec-1d2e-11eb-8abc-0242e805c5c5",
        "type": "Encounter"
      },
      "effectiveDateTime": "2016-08-02T00:00:00+00:00",
      "issued": "2020-11-02T20:08:33.000+00:00",
      "valueDateTime": "2016-10-01T00:00:00+00:00"
    },
    "request": {
      "method": "PUT",
      "url": "Observation/09edd3ec-1d2e-11eb-8abc-0242e805c5c5"
    }
  }, {
    "resource": {
      "resourceType": "Observation",
      "id": "09f8b88c-1d2e-11eb-8abc-0242e805c5c5",
      "meta": {
        "versionId": "1604347713000",
        "lastUpdated": "2020-11-02T20:08:33.000+00:00"
      },
      "status": "final",
      "code": {
        "coding": [ {
          "code": "5096AAAAAAAAAAAAAAAAAAAAAAAAAAAAAAAA",
          "display": "RETURN VISIT DATE"
        }, {
          "system": "https://cielterminology.org",
          "code": "5096"
        } ],
        "text": "RETURN VISIT DATE"
      },
      "subject": {
        "reference": "Patient/adc8310e-1d2c-11eb-8abc-0242e805c5c5",
        "type": "Patient",
        "display": "faith faith faith (OpenMRS ID: MGFNVD)"
      },
      "encounter": {
        "reference": "Encounter/09f82ce1-1d2e-11eb-8abc-0242e805c5c5",
        "type": "Encounter"
      },
      "effectiveDateTime": "2017-09-27T00:00:00+00:00",
      "issued": "2020-11-02T20:08:33.000+00:00",
      "valueDateTime": "2017-10-27T00:00:00+00:00"
    },
    "request": {
      "method": "PUT",
      "url": "Observation/09f82ce1-1d2e-11eb-8abc-0242e805c5c5"
    }
  }, {
    "resource": {
      "resourceType": "Observation",
      "id": "0a0039e2-1d2e-11eb-8abc-0242e805c5c5",
      "meta": {
        "versionId": "1604347713000",
        "lastUpdated": "2020-11-02T20:08:33.000+00:00"
      },
      "status": "final",
      "code": {
        "coding": [ {
          "code": "5096AAAAAAAAAAAAAAAAAAAAAAAAAAAAAAAA",
          "display": "RETURN VISIT DATE"
        }, {
          "system": "https://cielterminology.org",
          "code": "5096"
        } ],
        "text": "RETURN VISIT DATE"
      },
      "subject": {
        "reference": "Patient/adc8310e-1d2c-11eb-8abc-0242e805c5c5",
        "type": "Patient",
        "display": "faith faith faith (OpenMRS ID: MGFNVD)"
      },
      "encounter": {
        "reference": "Encounter/09ffc260-1d2e-11eb-8abc-0242e805c5c5",
        "type": "Encounter"
      },
      "effectiveDateTime": "2018-03-12T00:00:00+00:00",
      "issued": "2020-11-02T20:08:33.000+00:00",
      "valueDateTime": "2018-04-11T00:00:00+00:00"
    },
    "request": {
      "method": "PUT",
      "url": "Observation/09ffc260-1d2e-11eb-8abc-0242e805c5c5"
    }
  }, {
    "resource": {
      "resourceType": "Observation",
      "id": "0a07eb9b-1d2e-11eb-8abc-0242e805c5c5",
      "meta": {
        "versionId": "1604347713000",
        "lastUpdated": "2020-11-02T20:08:33.000+00:00"
      },
      "status": "final",
      "code": {
        "coding": [ {
          "code": "5096AAAAAAAAAAAAAAAAAAAAAAAAAAAAAAAA",
          "display": "RETURN VISIT DATE"
        }, {
          "system": "https://cielterminology.org",
          "code": "5096"
        } ],
        "text": "RETURN VISIT DATE"
      },
      "subject": {
        "reference": "Patient/adc8310e-1d2c-11eb-8abc-0242e805c5c5",
        "type": "Patient",
        "display": "faith faith faith (OpenMRS ID: MGFNVD)"
      },
      "encounter": {
        "reference": "Encounter/0a076994-1d2e-11eb-8abc-0242e805c5c5",
        "type": "Encounter"
      },
      "effectiveDateTime": "2018-05-17T00:00:00+00:00",
      "issued": "2020-11-02T20:08:33.000+00:00",
      "valueDateTime": "2018-05-25T00:00:00+00:00"
    },
    "request": {
      "method": "PUT",
      "url": "Observation/0a076994-1d2e-11eb-8abc-0242e805c5c5"
    }
  }, {
    "resource": {
      "resourceType": "Observation",
      "id": "0a0f8cd4-1d2e-11eb-8abc-0242e805c5c5",
      "meta": {
        "versionId": "1604347713000",
        "lastUpdated": "2020-11-02T20:08:33.000+00:00"
      },
      "status": "final",
      "code": {
        "coding": [ {
          "code": "5096AAAAAAAAAAAAAAAAAAAAAAAAAAAAAAAA",
          "display": "RETURN VISIT DATE"
        }, {
          "system": "https://cielterminology.org",
          "code": "5096"
        } ],
        "text": "RETURN VISIT DATE"
      },
      "subject": {
        "reference": "Patient/adc8310e-1d2c-11eb-8abc-0242e805c5c5",
        "type": "Patient",
        "display": "faith faith faith (OpenMRS ID: MGFNVD)"
      },
      "encounter": {
        "reference": "Encounter/0a0f0e07-1d2e-11eb-8abc-0242e805c5c5",
        "type": "Encounter"
      },
      "effectiveDateTime": "2018-05-25T00:00:00+00:00",
      "issued": "2020-11-02T20:08:33.000+00:00",
      "valueDateTime": "2018-06-01T00:00:00+00:00"
    },
    "request": {
      "method": "PUT",
      "url": "Observation/0a0f0e07-1d2e-11eb-8abc-0242e805c5c5"
    }
  }, {
    "resource": {
      "resourceType": "Observation",
      "id": "0a172046-1d2e-11eb-8abc-0242e805c5c5",
      "meta": {
        "versionId": "1604347713000",
        "lastUpdated": "2020-11-02T20:08:33.000+00:00"
      },
      "status": "final",
      "code": {
        "coding": [ {
          "code": "5096AAAAAAAAAAAAAAAAAAAAAAAAAAAAAAAA",
          "display": "RETURN VISIT DATE"
        }, {
          "system": "https://cielterminology.org",
          "code": "5096"
        } ],
        "text": "RETURN VISIT DATE"
      },
      "subject": {
        "reference": "Patient/adc8310e-1d2c-11eb-8abc-0242e805c5c5",
        "type": "Patient",
        "display": "faith faith faith (OpenMRS ID: MGFNVD)"
      },
      "encounter": {
        "reference": "Encounter/0a16aa71-1d2e-11eb-8abc-0242e805c5c5",
        "type": "Encounter"
      },
      "effectiveDateTime": "2018-07-05T00:00:00+00:00",
      "issued": "2020-11-02T20:08:33.000+00:00",
      "valueDateTime": "2018-08-07T00:00:00+00:00"
    },
    "request": {
      "method": "PUT",
      "url": "Observation/0a16aa71-1d2e-11eb-8abc-0242e805c5c5"
    }
  }, {
    "resource": {
      "resourceType": "Observation",
      "id": "0a1ef158-1d2e-11eb-8abc-0242e805c5c5",
      "meta": {
        "versionId": "1604347714000",
        "lastUpdated": "2020-11-02T20:08:34.000+00:00"
      },
      "status": "final",
      "code": {
        "coding": [ {
          "code": "5096AAAAAAAAAAAAAAAAAAAAAAAAAAAAAAAA",
          "display": "RETURN VISIT DATE"
        }, {
          "system": "https://cielterminology.org",
          "code": "5096"
        } ],
        "text": "RETURN VISIT DATE"
      },
      "subject": {
        "reference": "Patient/adc8310e-1d2c-11eb-8abc-0242e805c5c5",
        "type": "Patient",
        "display": "faith faith faith (OpenMRS ID: MGFNVD)"
      },
      "encounter": {
        "reference": "Encounter/0a1e6b0a-1d2e-11eb-8abc-0242e805c5c5",
        "type": "Encounter"
      },
      "effectiveDateTime": "2018-07-19T00:00:00+00:00",
      "issued": "2020-11-02T20:08:34.000+00:00",
      "valueDateTime": "2018-08-18T00:00:00+00:00"
    },
    "request": {
      "method": "PUT",
      "url": "Observation/0a1e6b0a-1d2e-11eb-8abc-0242e805c5c5"
    }
  }, {
    "resource": {
      "resourceType": "Observation",
      "id": "0a267971-1d2e-11eb-8abc-0242e805c5c5",
      "meta": {
        "versionId": "1604347714000",
        "lastUpdated": "2020-11-02T20:08:34.000+00:00"
      },
      "status": "final",
      "code": {
        "coding": [ {
          "code": "5096AAAAAAAAAAAAAAAAAAAAAAAAAAAAAAAA",
          "display": "RETURN VISIT DATE"
        }, {
          "system": "https://cielterminology.org",
          "code": "5096"
        } ],
        "text": "RETURN VISIT DATE"
      },
      "subject": {
        "reference": "Patient/adc8310e-1d2c-11eb-8abc-0242e805c5c5",
        "type": "Patient",
        "display": "faith faith faith (OpenMRS ID: MGFNVD)"
      },
      "encounter": {
        "reference": "Encounter/0a25fc26-1d2e-11eb-8abc-0242e805c5c5",
        "type": "Encounter"
      },
      "effectiveDateTime": "2018-09-17T00:00:00+00:00",
      "issued": "2020-11-02T20:08:34.000+00:00",
      "valueDateTime": "2018-11-14T00:00:00+00:00"
    },
    "request": {
      "method": "PUT",
      "url": "Observation/0a25fc26-1d2e-11eb-8abc-0242e805c5c5"
    }
  }, {
    "resource": {
      "resourceType": "Observation",
      "id": "0a347118-1d2e-11eb-8abc-0242e805c5c5",
      "meta": {
        "versionId": "1604347714000",
        "lastUpdated": "2020-11-02T20:08:34.000+00:00"
      },
      "status": "final",
      "code": {
        "coding": [ {
          "code": "5096AAAAAAAAAAAAAAAAAAAAAAAAAAAAAAAA",
          "display": "RETURN VISIT DATE"
        }, {
          "system": "https://cielterminology.org",
          "code": "5096"
        } ],
        "text": "RETURN VISIT DATE"
      },
      "subject": {
        "reference": "Patient/adc8310e-1d2c-11eb-8abc-0242e805c5c5",
        "type": "Patient",
        "display": "faith faith faith (OpenMRS ID: MGFNVD)"
      },
      "encounter": {
        "reference": "Encounter/0a33ee9d-1d2e-11eb-8abc-0242e805c5c5",
        "type": "Encounter"
      },
      "effectiveDateTime": "2018-09-18T00:00:00+00:00",
      "issued": "2020-11-02T20:08:34.000+00:00",
      "valueDateTime": "2018-10-18T00:00:00+00:00"
    },
    "request": {
      "method": "PUT",
      "url": "Observation/0a33ee9d-1d2e-11eb-8abc-0242e805c5c5"
    }
  }, {
    "resource": {
      "resourceType": "Observation",
      "id": "0a3c0b5c-1d2e-11eb-8abc-0242e805c5c5",
      "meta": {
        "versionId": "1604347714000",
        "lastUpdated": "2020-11-02T20:08:34.000+00:00"
      },
      "status": "final",
      "code": {
        "coding": [ {
          "code": "5096AAAAAAAAAAAAAAAAAAAAAAAAAAAAAAAA",
          "display": "RETURN VISIT DATE"
        }, {
          "system": "https://cielterminology.org",
          "code": "5096"
        } ],
        "text": "RETURN VISIT DATE"
      },
      "subject": {
        "reference": "Patient/adc8310e-1d2c-11eb-8abc-0242e805c5c5",
        "type": "Patient",
        "display": "faith faith faith (OpenMRS ID: MGFNVD)"
      },
      "encounter": {
        "reference": "Encounter/0a3b9822-1d2e-11eb-8abc-0242e805c5c5",
        "type": "Encounter"
      },
      "effectiveDateTime": "2018-11-19T00:00:00+00:00",
      "issued": "2020-11-02T20:08:34.000+00:00",
      "valueDateTime": "2018-12-19T00:00:00+00:00"
    },
    "request": {
      "method": "PUT",
      "url": "Observation/0a3b9822-1d2e-11eb-8abc-0242e805c5c5"
    }
  }, {
    "resource": {
      "resourceType": "Observation",
      "id": "0a43c061-1d2e-11eb-8abc-0242e805c5c5",
      "meta": {
        "versionId": "1604347714000",
        "lastUpdated": "2020-11-02T20:08:34.000+00:00"
      },
      "status": "final",
      "code": {
        "coding": [ {
          "code": "5096AAAAAAAAAAAAAAAAAAAAAAAAAAAAAAAA",
          "display": "RETURN VISIT DATE"
        }, {
          "system": "https://cielterminology.org",
          "code": "5096"
        } ],
        "text": "RETURN VISIT DATE"
      },
      "subject": {
        "reference": "Patient/adc8310e-1d2c-11eb-8abc-0242e805c5c5",
        "type": "Patient",
        "display": "faith faith faith (OpenMRS ID: MGFNVD)"
      },
      "encounter": {
        "reference": "Encounter/0a4343ba-1d2e-11eb-8abc-0242e805c5c5",
        "type": "Encounter"
      },
      "effectiveDateTime": "2018-12-18T00:00:00+00:00",
      "issued": "2020-11-02T20:08:34.000+00:00",
      "valueDateTime": "2019-01-19T00:00:00+00:00"
    },
    "request": {
      "method": "PUT",
      "url": "Observation/0a4343ba-1d2e-11eb-8abc-0242e805c5c5"
    }
  }, {
    "resource": {
      "resourceType": "Observation",
      "id": "0a4ca34b-1d2e-11eb-8abc-0242e805c5c5",
      "meta": {
        "versionId": "1604347714000",
        "lastUpdated": "2020-11-02T20:08:34.000+00:00"
      },
      "status": "final",
      "code": {
        "coding": [ {
          "code": "5096AAAAAAAAAAAAAAAAAAAAAAAAAAAAAAAA",
          "display": "RETURN VISIT DATE"
        }, {
          "system": "https://cielterminology.org",
          "code": "5096"
        } ],
        "text": "RETURN VISIT DATE"
      },
      "subject": {
        "reference": "Patient/adc8310e-1d2c-11eb-8abc-0242e805c5c5",
        "type": "Patient",
        "display": "faith faith faith (OpenMRS ID: MGFNVD)"
      },
      "encounter": {
        "reference": "Encounter/0a4c3707-1d2e-11eb-8abc-0242e805c5c5",
        "type": "Encounter"
      },
      "effectiveDateTime": "2019-01-17T00:00:00+00:00",
      "issued": "2020-11-02T20:08:34.000+00:00",
      "valueDateTime": "2019-02-16T00:00:00+00:00"
    },
    "request": {
      "method": "PUT",
      "url": "Observation/0a4c3707-1d2e-11eb-8abc-0242e805c5c5"
    }
  }, {
    "resource": {
      "resourceType": "Observation",
      "id": "0cc18a08-1d2e-11eb-8abc-0242e805c5c5",
      "meta": {
        "versionId": "1604347718000",
        "lastUpdated": "2020-11-02T20:08:38.000+00:00"
      },
      "status": "final",
      "code": {
        "coding": [ {
          "code": "5096AAAAAAAAAAAAAAAAAAAAAAAAAAAAAAAA",
          "display": "RETURN VISIT DATE"
        }, {
          "system": "https://cielterminology.org",
          "code": "5096"
        } ],
        "text": "RETURN VISIT DATE"
      },
      "subject": {
        "reference": "Patient/adc8310e-1d2c-11eb-8abc-0242e805c5c5",
        "type": "Patient",
        "display": "faith faith faith (OpenMRS ID: MGFNVD)"
      },
      "encounter": {
        "reference": "Encounter/0a537383-1d2e-11eb-8abc-0242e805c5c5",
        "type": "Encounter"
      },
      "effectiveDateTime": "2019-02-22T00:00:00+00:00",
      "issued": "2020-11-02T20:08:38.000+00:00",
      "valueDateTime": "2019-03-24T00:00:00+00:00"
    },
    "request": {
      "method": "PUT",
      "url": "Observation/0a537383-1d2e-11eb-8abc-0242e805c5c5"
    }
  }, {
    "resource": {
      "resourceType": "Observation",
      "id": "0cd289d2-1d2e-11eb-8abc-0242e805c5c5",
      "meta": {
        "versionId": "1604347718000",
        "lastUpdated": "2020-11-02T20:08:38.000+00:00"
      },
      "status": "final",
      "code": {
        "coding": [ {
          "code": "5096AAAAAAAAAAAAAAAAAAAAAAAAAAAAAAAA",
          "display": "RETURN VISIT DATE"
        }, {
          "system": "https://cielterminology.org",
          "code": "5096"
        } ],
        "text": "RETURN VISIT DATE"
      },
      "subject": {
        "reference": "Patient/adc8310e-1d2c-11eb-8abc-0242e805c5c5",
        "type": "Patient",
        "display": "faith faith faith (OpenMRS ID: MGFNVD)"
      },
      "encounter": {
        "reference": "Encounter/0cd20986-1d2e-11eb-8abc-0242e805c5c5",
        "type": "Encounter"
      },
      "effectiveDateTime": "2019-03-07T00:00:00+00:00",
      "issued": "2020-11-02T20:08:38.000+00:00",
      "valueDateTime": "2019-04-17T00:00:00+00:00"
    },
    "request": {
      "method": "PUT",
      "url": "Observation/0cd20986-1d2e-11eb-8abc-0242e805c5c5"
    }
  }, {
    "resource": {
      "resourceType": "Observation",
      "id": "0cda5fc0-1d2e-11eb-8abc-0242e805c5c5",
      "meta": {
        "versionId": "1604347718000",
        "lastUpdated": "2020-11-02T20:08:38.000+00:00"
      },
      "status": "final",
      "code": {
        "coding": [ {
          "code": "5096AAAAAAAAAAAAAAAAAAAAAAAAAAAAAAAA",
          "display": "RETURN VISIT DATE"
        }, {
          "system": "https://cielterminology.org",
          "code": "5096"
        } ],
        "text": "RETURN VISIT DATE"
      },
      "subject": {
        "reference": "Patient/adc8310e-1d2c-11eb-8abc-0242e805c5c5",
        "type": "Patient",
        "display": "faith faith faith (OpenMRS ID: MGFNVD)"
      },
      "encounter": {
        "reference": "Encounter/0cd9a200-1d2e-11eb-8abc-0242e805c5c5",
        "type": "Encounter"
      },
      "effectiveDateTime": "2020-04-16T00:00:00+00:00",
      "issued": "2020-11-02T20:08:38.000+00:00",
      "valueDateTime": "2020-08-14T00:00:00+00:00"
    },
    "request": {
      "method": "PUT",
      "url": "Observation/0cd9a200-1d2e-11eb-8abc-0242e805c5c5"
    }
  }, {
    "resource": {
      "resourceType": "Observation",
      "id": "0ce72062-1d2e-11eb-8abc-0242e805c5c5",
      "meta": {
        "versionId": "1604347718000",
        "lastUpdated": "2020-11-02T20:08:38.000+00:00"
      },
      "status": "final",
      "code": {
        "coding": [ {
          "code": "5096AAAAAAAAAAAAAAAAAAAAAAAAAAAAAAAA",
          "display": "RETURN VISIT DATE"
        }, {
          "system": "https://cielterminology.org",
          "code": "5096"
        } ],
        "text": "RETURN VISIT DATE"
      },
      "subject": {
        "reference": "Patient/adc8310e-1d2c-11eb-8abc-0242e805c5c5",
        "type": "Patient",
        "display": "faith faith faith (OpenMRS ID: MGFNVD)"
      },
      "encounter": {
        "reference": "Encounter/0ce66413-1d2e-11eb-8abc-0242e805c5c5",
        "type": "Encounter"
      },
      "effectiveDateTime": "2020-08-11T00:00:00+00:00",
      "issued": "2020-11-02T20:08:38.000+00:00",
      "valueDateTime": "2020-11-19T00:00:00+00:00"
    },
    "request": {
      "method": "PUT",
      "url": "Observation/0ce66413-1d2e-11eb-8abc-0242e805c5c5"
    }
  }, {
    "resource": {
      "resourceType": "Observation",
      "id": "09e0ea52-5cc6-47b1-bb8f-2fb44d9b7c28",
      "meta": {
        "versionId": "1605715698000",
        "lastUpdated": "2020-11-18T16:08:18.000+00:00"
      },
      "status": "final",
      "code": {
        "coding": [ {
          "code": "5096AAAAAAAAAAAAAAAAAAAAAAAAAAAAAAAA",
          "display": "RETURN VISIT DATE"
        }, {
          "system": "https://cielterminology.org",
          "code": "5096"
        } ],
        "text": "RETURN VISIT DATE"
      },
      "subject": {
        "reference": "Patient/adc8310e-1d2c-11eb-8abc-0242e805c5c5",
        "type": "Patient",
        "display": "faith faith faith (OpenMRS ID: MGFNVD)"
      },
      "encounter": {
        "reference": "Encounter/4735b953-f4e5-41c3-a07c-039ffc97caba",
        "type": "Encounter"
      },
      "effectiveDateTime": "2020-11-18T16:06:35+00:00",
      "issued": "2020-11-18T16:08:18.000+00:00",
      "valueDateTime": "2021-02-18T00:00:00+00:00"
    },
    "request": {
      "method": "PUT",
      "url": "Observation/4735b953-f4e5-41c3-a07c-039ffc97caba"
    }
  }, {
    "resource": {
      "resourceType": "Observation",
      "id": "ad92fd8c-278b-4d53-be84-a61799d46933",
      "meta": {
        "versionId": "1614616404000",
        "lastUpdated": "2021-03-01T16:33:24.000+00:00"
      },
      "status": "final",
      "code": {
        "coding": [ {
          "code": "5096AAAAAAAAAAAAAAAAAAAAAAAAAAAAAAAA",
          "display": "RETURN VISIT DATE"
        }, {
          "system": "https://cielterminology.org",
          "code": "5096"
        } ],
        "text": "RETURN VISIT DATE"
      },
      "subject": {
        "reference": "Patient/adc8310e-1d2c-11eb-8abc-0242e805c5c5",
        "type": "Patient",
        "display": "faith faith faith (OpenMRS ID: MGFNVD)"
      },
      "encounter": {
        "reference": "Encounter/fdc88a1f-7a40-4b6b-b113-5ceae669b086",
        "type": "Encounter"
      },
      "effectiveDateTime": "2021-02-25T16:31:00+00:00",
      "issued": "2021-03-01T16:33:24.000+00:00",
      "valueDateTime": "2021-03-03T00:00:00+00:00"
    },
    "request": {
      "method": "PUT",
      "url": "Observation/fdc88a1f-7a40-4b6b-b113-5ceae669b086"
    }
  }, {
    "resource": {
      "resourceType": "Observation",
      "id": "9603e894-abec-4295-9d4a-7a17d1b7f31a",
      "meta": {
        "versionId": "1614616460000",
        "lastUpdated": "2021-03-01T16:34:20.000+00:00"
      },
      "status": "final",
      "code": {
        "coding": [ {
          "code": "161555AAAAAAAAAAAAAAAAAAAAAAAAAAAAAA",
          "display": "Reason for discontinuation of program"
        }, {
          "system": "https://cielterminology.org",
          "code": "161555"
        } ],
        "text": "Reason for discontinuation of program"
      },
      "subject": {
        "reference": "Patient/adc8310e-1d2c-11eb-8abc-0242e805c5c5",
        "type": "Patient",
        "display": "faith faith faith (OpenMRS ID: MGFNVD)"
      },
      "encounter": {
        "reference": "Encounter/01932024-8d16-43a6-a035-1b991151419d",
        "type": "Encounter"
      },
      "effectiveDateTime": "2021-03-01T16:33:29+00:00",
      "issued": "2021-03-01T16:34:20.000+00:00",
      "valueCodeableConcept": {
        "coding": [ {
          "code": "159492AAAAAAAAAAAAAAAAAAAAAAAAAAAAAA",
          "display": "Transferred out"
        }, {
          "system": "https://cielterminology.org",
          "code": "159492"
        } ],
        "text": "Transferred out"
      }
    },
    "request": {
      "method": "PUT",
      "url": "Observation/01932024-8d16-43a6-a035-1b991151419d"
    }
  }, {
    "resource": {
      "resourceType": "Observation",
      "id": "855c69e1-e59f-4417-88ff-a8954753f8a8",
      "meta": {
        "versionId": "1614616460000",
        "lastUpdated": "2021-03-01T16:34:20.000+00:00"
      },
      "status": "final",
      "code": {
        "coding": [ {
          "code": "164384AAAAAAAAAAAAAAAAAAAAAAAAAAAAAA",
          "display": "Treatment end date"
        }, {
          "system": "https://cielterminology.org",
          "code": "164384"
        }, {
          "system": "http://snomed.info/sct/",
          "code": "413947000"
        } ],
        "text": "Treatment end date"
      },
      "subject": {
        "reference": "Patient/adc8310e-1d2c-11eb-8abc-0242e805c5c5",
        "type": "Patient",
        "display": "faith faith faith (OpenMRS ID: MGFNVD)"
      },
      "encounter": {
        "reference": "Encounter/01932024-8d16-43a6-a035-1b991151419d",
        "type": "Encounter"
      },
      "effectiveDateTime": "2021-03-01T16:33:29+00:00",
      "issued": "2021-03-01T16:34:20.000+00:00",
      "valueDateTime": "2021-02-25T00:00:00+00:00"
    },
    "request": {
      "method": "PUT",
      "url": "Observation/01932024-8d16-43a6-a035-1b991151419d"
    }
  } ]
}