{
  "resourceType": "Bundle",
  "type": "transaction",
  "entry": [
    {
      "fullUrl": "urn:uuid:19f61111-19cf-4cfe-b272-1eb60e18c64f",
      "request": {
        "url": "Patient",
        "method": "POST"
      },
      "resource": {
        "resourceType": "Patient",
        "name": [
          {
            "given": [
              "Mittens"
            ],
            "family": "Cat",
            "text": "PLHIV MMD 180 10-25"
          }
        ],
        "gender": "male",
        "birthDate": "1988-02-12"
      }
    },
    {
      "fullUrl": "urn:uuid:e59ecbe0-1615-4f29-bc07-dc170137abbf",
      "request": {
        "url": "Condition",
        "method": "POST"
      },
      "resource": {
        "resourceType": "Condition",
        "clinicalStatus": {
          "coding": [
            {
              "code": "active",
              "system": "http://terminology.hl7.org/CodeSystem/condition-clinical"
            }
          ]
        },
        "verificationStatus": {
          "coding": [
            {
              "code": "confirmed",
              "system": "http://terminology.hl7.org/CodeSystem/condition-ver-status"
            }
          ]
        },
        "subject": {
          "reference": "urn:uuid:19f61111-19cf-4cfe-b272-1eb60e18c64f"
        },
        "code": {
          "coding": [
            {
              "code": "737378009",
              "system": "http://snomed.info/sct",
              "display": "World Health Organization 2007 Human immunodeficiency virus infection clinical stage 1 (finding)"
            }
          ]
        },
        "onsetDateTime": "2018-12-05"
      }
    },
    {
      "fullUrl": "urn:uuid:b17e1935-6975-4c9e-821f-112adbbe4ada",
      "request": {
        "url": "Encounter",
        "method": "POST"
      },
      "resource": {
        "resourceType": "Encounter",
        "status": "finished",
        "class": {
          "code": "AMB",
          "system": "http://terminology.hl7.org/CodeSystem/v3-ActCode"
        },
	"serviceType": {
	  "coding": [
	    {
	      "code": "788081006",
	      "system": "http://snomed.info/sct"
	    }
	  ]
	},
        "subject": {
          "reference": "urn:uuid:19f61111-19cf-4cfe-b272-1eb60e18c64f"
        },
        "serviceProvider": {
          "reference": "Organization/Organization-DAK"
        },
        "location": [
          {
            "location": {
              "reference": "Location/Location-DAK"
            }
          }
        ],
        "period": {
          "start": "2022-10-25",
          "end": "2022-10-25"
        }
      }
    },
    {
      "fullUrl": "urn:uuid:e0e06513-6848-4d34-a64c-8b5455663c4a",
      "request": {
        "url": "Observation",
        "method": "POST"
      },
      "resource": {
        "resourceType": "Observation",
        "status": "final",
        "encounter": {
          "reference": "urn:uuid:b17e1935-6975-4c9e-821f-112adbbe4ada"
        },
        "subject": {
          "reference": "urn:uuid:19f61111-19cf-4cfe-b272-1eb60e18c64f"
        },
        "code": {
          "coding": [
            {
              "code": "258703001",
              "system": "http://snomed.info/sct",
              "display": "Day (qualifier value)"
            }
          ]
        },
        "valueInteger": 180,
        "effectiveDateTime": "2022-10-25"
      }
    }
  ]
}
